{
    "ApprovalTime": "2017-11-29T18:15:59Z",
    "AutoApprovalTime": "2017-11-29T18:15:51Z",
    "AssignmentId": "xxxx",
    "WorkerId": "subject3",
    "answers": {
        "data": [
            {
                "rt": 8384,
                "trial_type": "text",
                "internal_node_id": "0.0-0.0",
                "time_elapsed": 8389,
                "key_press": 32,
                "trial_index": 0
            },
            {
                "rt": 956,
                "trial_type": "single-stim",
                "name": "Anna",
                "stimulus": "<p class='center-content'>Is this a smile?</p><p class='center-content'><img src='img/Anna_Dominance.jpg' height='410' width='730'></img></p>",
                "expr": "dominance",
                "internal_node_id": "0.0-1.0-0.0",
                "time_elapsed": 11355,
                "key_press": 81,
                "condition": 1,
                "gend": "female",
                "trial_index": 1
            },
            {
                "rt": 762,
                "trial_type": "single-stim",
                "name": "Maurice",
                "stimulus": "<p class='center-content'>Is this a smile?</p><p class='center-content'><img src='img/Maurice_Reward.jpg' height='410' width='730'></img></p>",
                "expr": "reward",
                "internal_node_id": "0.0-1.0-1.0",
                "time_elapsed": 12121,
                "key_press": 81,
                "condition": 1,
                "gend": "male",
                "trial_index": 2
            },
            {
                "rt": 821,
                "trial_type": "single-stim",
                "name": "Ashley",
                "stimulus": "<p class='center-content'>Is this a smile?</p><p class='center-content'><img src='img/Ashley.jpg' height='410' width='730'></img></p>",
                "expr": "neutral",
                "internal_node_id": "0.0-1.0-2.0",
                "time_elapsed": 12946,
                "key_press": 80,
                "condition": 1,
                "gend": "female",
                "trial_index": 3
            },
            {
                "rt": 635,
                "trial_type": "single-stim",
                "name": "KJ",
                "stimulus": "<p class='center-content'>Is this a smile?</p><p class='center-content'><img src='img/KJ_Affiliation.jpg' height='410' width='730'></img></p>",
                "expr": "affiliation",
                "internal_node_id": "0.0-1.0-3.0",
                "time_elapsed": 13585,
                "key_press": 81,
                "condition": 1,
                "gend": "female",
                "trial_index": 4
            },
            {
                "rt": 678,
                "trial_type": "single-stim",
                "name": "Mary",
                "stimulus": "<p class='center-content'>Is this a smile?</p><p class='center-content'><img src='img/Mary_Reward.jpg' height='410' width='730'></img></p>",
                "expr": "reward",
                "internal_node_id": "0.0-1.0-4.0",
                "time_elapsed": 14266,
                "key_press": 81,
                "condition": 1,
                "gend": "female",
                "trial_index": 5
            },
            {
                "rt": 956,
                "trial_type": "single-stim",
                "name": "Joeseph",
                "stimulus": "<p class='center-content'>Is this a smile?</p><p class='center-content'><img src='img/Joeseph_Reward.jpg' height='410' width='730'></img></p>",
                "expr": "reward",
                "internal_node_id": "0.0-1.0-5.0",
                "time_elapsed": 15225,
                "key_press": 81,
                "condition": 1,
                "gend": "male",
                "trial_index": 6
            },
            {
                "rt": 2069,
                "trial_type": "single-stim",
                "name": "Naomi",
                "stimulus": "<p class='center-content'>Is this a smile?</p><p class='center-content'><img src='img/Naomi_Affiliation.jpg' height='410' width='730'></img></p>",
                "expr": "affiliation",
                "internal_node_id": "0.0-1.0-6.0",
                "time_elapsed": 17297,
                "key_press": 81,
                "condition": 1,
                "gend": "female",
                "trial_index": 7
            },
            {
                "rt": 565,
                "trial_type": "single-stim",
                "name": "Andrew",
                "stimulus": "<p class='center-content'>Is this a smile?</p><p class='center-content'><img src='img/Andrew_Dominance.jpg' height='410' width='730'></img></p>",
                "expr": "dominance",
                "internal_node_id": "0.0-1.0-7.0",
                "time_elapsed": 17865,
                "key_press": 81,
                "condition": 1,
                "gend": "male",
                "trial_index": 8
            },
            {
                "rt": 1278,
                "trial_type": "single-stim",
                "name": "Lulu",
                "stimulus": "<p class='center-content'>Is this a smile?</p><p class='center-content'><img src='img/Lulu_Reward.jpg' height='410' width='730'></img></p>",
                "expr": "reward",
                "internal_node_id": "0.0-1.0-8.0",
                "time_elapsed": 19146,
                "key_press": 81,
                "condition": 1,
                "gend": "female",
                "trial_index": 9
            },
            {
                "rt": 899,
                "trial_type": "single-stim",
                "name": "Ashley",
                "stimulus": "<p class='center-content'>Is this a smile?</p><p class='center-content'><img src='img/Ashley_Dominance.jpg' height='410' width='730'></img></p>",
                "expr": "dominance",
                "internal_node_id": "0.0-1.0-9.0",
                "time_elapsed": 20050,
                "key_press": 80,
                "condition": 1,
                "gend": "female",
                "trial_index": 10
            },
            {
                "rt": 707,
                "trial_type": "single-stim",
                "name": "Jessica",
                "stimulus": "<p class='center-content'>Is this a smile?</p><p class='center-content'><img src='img/Jessica_Disgust.jpg' height='410' width='730'></img></p>",
                "expr": "disgust",
                "internal_node_id": "0.0-1.0-10.0",
                "time_elapsed": 20761,
                "key_press": 80,
                "condition": 1,
                "gend": "female",
                "trial_index": 11
            },
            {
                "rt": 717,
                "trial_type": "single-stim",
                "name": "Joeseph",
                "stimulus": "<p class='center-content'>Is this a smile?</p><p class='center-content'><img src='img/Joeseph_Dominance.jpg' height='410' width='730'></img></p>",
                "expr": "dominance",
                "internal_node_id": "0.0-1.0-11.0",
                "time_elapsed": 21482,
                "key_press": 80,
                "condition": 1,
                "gend": "male",
                "trial_index": 12
            },
            {
                "rt": 692,
                "trial_type": "single-stim",
                "name": "Anthony",
                "stimulus": "<p class='center-content'>Is this a smile?</p><p class='center-content'><img src='img/Anthony_Disgust.jpg' height='410' width='730'></img></p>",
                "expr": "disgust",
                "internal_node_id": "0.0-1.0-12.0",
                "time_elapsed": 22178,
                "key_press": 80,
                "condition": 1,
                "gend": "male",
                "trial_index": 13
            },
            {
                "rt": 676,
                "trial_type": "single-stim",
                "name": "Mary",
                "stimulus": "<p class='center-content'>Is this a smile?</p><p class='center-content'><img src='img/Mary.jpg' height='410' width='730'></img></p>",
                "expr": "neutral",
                "internal_node_id": "0.0-1.0-13.0",
                "time_elapsed": 22858,
                "key_press": 80,
                "condition": 1,
                "gend": "female",
                "trial_index": 14
            },
            {
                "rt": 1108,
                "trial_type": "single-stim",
                "name": "KJ",
                "stimulus": "<p class='center-content'>Is this a smile?</p><p class='center-content'><img src='img/KJ.jpg' height='410' width='730'></img></p>",
                "expr": "neutral",
                "internal_node_id": "0.0-1.0-14.0",
                "time_elapsed": 23970,
                "key_press": 81,
                "condition": 1,
                "gend": "female",
                "trial_index": 15
            },
            {
                "rt": 930,
                "trial_type": "single-stim",
                "name": "Anthony",
                "stimulus": "<p class='center-content'>Is this a smile?</p><p class='center-content'><img src='img/Anthony_Dominance.jpg' height='410' width='730'></img></p>",
                "expr": "dominance",
                "internal_node_id": "0.0-1.0-15.0",
                "time_elapsed": 24906,
                "key_press": 81,
                "condition": 1,
                "gend": "male",
                "trial_index": 16
            },
            {
                "rt": 972,
                "trial_type": "single-stim",
                "name": "Ashley",
                "stimulus": "<p class='center-content'>Is this a smile?</p><p class='center-content'><img src='img/Ashley_Reward.jpg' height='410' width='730'></img></p>",
                "expr": "reward",
                "internal_node_id": "0.0-1.0-16.0",
                "time_elapsed": 25882,
                "key_press": 81,
                "condition": 1,
                "gend": "female",
                "trial_index": 17
            },
            {
                "rt": 1348,
                "trial_type": "single-stim",
                "name": "Maurice",
                "stimulus": "<p class='center-content'>Is this a smile?</p><p class='center-content'><img src='img/Maurice.jpg' height='410' width='730'></img></p>",
                "expr": "neutral",
                "internal_node_id": "0.0-1.0-17.0",
                "time_elapsed": 27234,
                "key_press": 81,
                "condition": 1,
                "gend": "male",
                "trial_index": 18
            },
            {
                "rt": 899,
                "trial_type": "single-stim",
                "name": "Anthony",
                "stimulus": "<p class='center-content'>Is this a smile?</p><p class='center-content'><img src='img/Anthony.jpg' height='410' width='730'></img></p>",
                "expr": "neutral",
                "internal_node_id": "0.0-1.0-18.0",
                "time_elapsed": 28138,
                "key_press": 81,
                "condition": 1,
                "gend": "male",
                "trial_index": 19
            },
            {
                "rt": 1036,
                "trial_type": "single-stim",
                "name": "Marcus",
                "stimulus": "<p class='center-content'>Is this a smile?</p><p class='center-content'><img src='img/Marcus_Dominance.jpg' height='410' width='730'></img></p>",
                "expr": "dominance",
                "internal_node_id": "0.0-1.0-19.0",
                "time_elapsed": 29179,
                "key_press": 81,
                "condition": 1,
                "gend": "male",
                "trial_index": 20
            },
            {
                "rt": 732,
                "trial_type": "single-stim",
                "name": "Ashley",
                "stimulus": "<p class='center-content'>Is this a smile?</p><p class='center-content'><img src='img/Ashley_Affiliation.jpg' height='410' width='730'></img></p>",
                "expr": "affiliation",
                "internal_node_id": "0.0-1.0-20.0",
                "time_elapsed": 29914,
                "key_press": 80,
                "condition": 1,
                "gend": "female",
                "trial_index": 21
            },
            {
                "rt": 716,
                "trial_type": "single-stim",
                "name": "Jourdan",
                "stimulus": "<p class='center-content'>Is this a smile?</p><p class='center-content'><img src='img/Jourdan_Reward.jpg' height='410' width='730'></img></p>",
                "expr": "reward",
                "internal_node_id": "0.0-1.0-21.0",
                "time_elapsed": 30634,
                "key_press": 81,
                "condition": 1,
                "gend": "male",
                "trial_index": 22
            },
            {
                "rt": 675,
                "trial_type": "single-stim",
                "name": "Maurice",
                "stimulus": "<p class='center-content'>Is this a smile?</p><p class='center-content'><img src='img/Maurice_Affiliation.jpg' height='410' width='730'></img></p>",
                "expr": "affiliation",
                "internal_node_id": "0.0-1.0-22.0",
                "time_elapsed": 31314,
                "key_press": 81,
                "condition": 1,
                "gend": "male",
                "trial_index": 23
            },
            {
                "rt": 708,
                "trial_type": "single-stim",
                "name": "Marcus",
                "stimulus": "<p class='center-content'>Is this a smile?</p><p class='center-content'><img src='img/Marcus_Reward.jpg' height='410' width='730'></img></p>",
                "expr": "reward",
                "internal_node_id": "0.0-1.0-23.0",
                "time_elapsed": 32026,
                "key_press": 81,
                "condition": 1,
                "gend": "male",
                "trial_index": 24
            },
            {
                "rt": 619,
                "trial_type": "single-stim",
                "name": "Naomi",
                "stimulus": "<p class='center-content'>Is this a smile?</p><p class='center-content'><img src='img/Naomi_Reward.jpg' height='410' width='730'></img></p>",
                "expr": "reward",
                "internal_node_id": "0.0-1.0-24.0",
                "time_elapsed": 32652,
                "key_press": 81,
                "condition": 1,
                "gend": "female",
                "trial_index": 25
            },
            {
                "rt": 657,
                "trial_type": "single-stim",
                "name": "Dmonte",
                "stimulus": "<p class='center-content'>Is this a smile?</p><p class='center-content'><img src='img/Dmonte_Disgust.jpg' height='410' width='730'></img></p>",
                "expr": "disgust",
                "internal_node_id": "0.0-1.0-25.0",
                "time_elapsed": 33314,
                "key_press": 80,
                "condition": 1,
                "gend": "male",
                "trial_index": 26
            },
            {
                "rt": 987,
                "trial_type": "single-stim",
                "name": "Marcus",
                "stimulus": "<p class='center-content'>Is this a smile?</p><p class='center-content'><img src='img/Marcus.jpg' height='410' width='730'></img></p>",
                "expr": "neutral",
                "internal_node_id": "0.0-1.0-26.0",
                "time_elapsed": 34306,
                "key_press": 80,
                "condition": 1,
                "gend": "male",
                "trial_index": 27
            },
            {
                "rt": 819,
                "trial_type": "single-stim",
                "name": "Zach",
                "stimulus": "<p class='center-content'>Is this a smile?</p><p class='center-content'><img src='img/Zach_Reward.jpg' height='410' width='730'></img></p>",
                "expr": "reward",
                "internal_node_id": "0.0-1.0-27.0",
                "time_elapsed": 35130,
                "key_press": 81,
                "condition": 1,
                "gend": "male",
                "trial_index": 28
            },
            {
                "rt": 563,
                "trial_type": "single-stim",
                "name": "Zach",
                "stimulus": "<p class='center-content'>Is this a smile?</p><p class='center-content'><img src='img/Zach_Affiliation.jpg' height='410' width='730'></img></p>",
                "expr": "affiliation",
                "internal_node_id": "0.0-1.0-28.0",
                "time_elapsed": 35698,
                "key_press": 81,
                "condition": 1,
                "gend": "male",
                "trial_index": 29
            },
            {
                "rt": 1004,
                "trial_type": "single-stim",
                "name": "KJ",
                "stimulus": "<p class='center-content'>Is this a smile?</p><p class='center-content'><img src='img/KJ_Disgust.jpg' height='410' width='730'></img></p>",
                "expr": "disgust",
                "internal_node_id": "0.0-1.0-29.0",
                "time_elapsed": 36706,
                "key_press": 80,
                "condition": 1,
                "gend": "female",
                "trial_index": 30
            },
            {
                "rt": 763,
                "trial_type": "single-stim",
                "name": "KJ",
                "stimulus": "<p class='center-content'>Is this a smile?</p><p class='center-content'><img src='img/KJ_Reward.jpg' height='410' width='730'></img></p>",
                "expr": "reward",
                "internal_node_id": "0.0-1.0-30.0",
                "time_elapsed": 37474,
                "key_press": 81,
                "condition": 1,
                "gend": "female",
                "trial_index": 31
            },
            {
                "rt": 1667,
                "trial_type": "single-stim",
                "name": "Marcus",
                "stimulus": "<p class='center-content'>Is this a smile?</p><p class='center-content'><img src='img/Marcus_Affiliation.jpg' height='410' width='730'></img></p>",
                "expr": "affiliation",
                "internal_node_id": "0.0-1.0-31.0",
                "time_elapsed": 39146,
                "key_press": 81,
                "condition": 1,
                "gend": "male",
                "trial_index": 32
            },
            {
                "rt": 1131,
                "trial_type": "single-stim",
                "name": "Joeseph",
                "stimulus": "<p class='center-content'>Is this a smile?</p><p class='center-content'><img src='img/Joeseph.jpg' height='410' width='730'></img></p>",
                "expr": "neutral",
                "internal_node_id": "0.0-1.0-32.0",
                "time_elapsed": 40282,
                "key_press": 80,
                "condition": 1,
                "gend": "male",
                "trial_index": 33
            },
            {
                "rt": 677,
                "trial_type": "single-stim",
                "name": "Ashley",
                "stimulus": "<p class='center-content'>Is this a smile?</p><p class='center-content'><img src='img/Ashley_Disgust.jpg' height='410' width='730'></img></p>",
                "expr": "disgust",
                "internal_node_id": "0.0-1.0-33.0",
                "time_elapsed": 40963,
                "key_press": 81,
                "condition": 1,
                "gend": "female",
                "trial_index": 34
            },
            {
                "rt": 1738,
                "trial_type": "single-stim",
                "name": "Zach",
                "stimulus": "<p class='center-content'>Is this a smile?</p><p class='center-content'><img src='img/Zach.jpg' height='410' width='730'></img></p>",
                "expr": "neutral",
                "internal_node_id": "0.0-1.0-34.0",
                "time_elapsed": 42706,
                "key_press": 80,
                "condition": 1,
                "gend": "male",
                "trial_index": 35
            },
            {
                "rt": 724,
                "trial_type": "single-stim",
                "name": "Dmonte",
                "stimulus": "<p class='center-content'>Is this a smile?</p><p class='center-content'><img src='img/Dmonte_Reward.jpg' height='410' width='730'></img></p>",
                "expr": "reward",
                "internal_node_id": "0.0-1.0-35.0",
                "time_elapsed": 43439,
                "key_press": 81,
                "condition": 1,
                "gend": "male",
                "trial_index": 36
            },
            {
                "rt": 711,
                "trial_type": "single-stim",
                "name": "Anna",
                "stimulus": "<p class='center-content'>Is this a smile?</p><p class='center-content'><img src='img/Anna.jpg' height='410' width='730'></img></p>",
                "expr": "neutral",
                "internal_node_id": "0.0-1.0-36.0",
                "time_elapsed": 44154,
                "key_press": 81,
                "condition": 1,
                "gend": "female",
                "trial_index": 37
            },
            {
                "rt": 747,
                "trial_type": "single-stim",
                "name": "Anna",
                "stimulus": "<p class='center-content'>Is this a smile?</p><p class='center-content'><img src='img/Anna_Reward.jpg' height='410' width='730'></img></p>",
                "expr": "reward",
                "internal_node_id": "0.0-1.0-37.0",
                "time_elapsed": 44906,
                "key_press": 81,
                "condition": 1,
                "gend": "female",
                "trial_index": 38
            },
            {
                "rt": 748,
                "trial_type": "single-stim",
                "name": "Jourdan",
                "stimulus": "<p class='center-content'>Is this a smile?</p><p class='center-content'><img src='img/Jourdan_Dominance.jpg' height='410' width='730'></img></p>",
                "expr": "dominance",
                "internal_node_id": "0.0-1.0-38.0",
                "time_elapsed": 45658,
                "key_press": 81,
                "condition": 1,
                "gend": "male",
                "trial_index": 39
            },
            {
                "rt": 732,
                "trial_type": "single-stim",
                "name": "Anna",
                "stimulus": "<p class='center-content'>Is this a smile?</p><p class='center-content'><img src='img/Anna_Disgust.jpg' height='410' width='730'></img></p>",
                "expr": "disgust",
                "internal_node_id": "0.0-1.0-39.0",
                "time_elapsed": 46394,
                "key_press": 80,
                "condition": 1,
                "gend": "female",
                "trial_index": 40
            },
            {
                "rt": 596,
                "trial_type": "single-stim",
                "name": "Anthony",
                "stimulus": "<p class='center-content'>Is this a smile?</p><p class='center-content'><img src='img/Anthony_Reward.jpg' height='410' width='730'></img></p>",
                "expr": "reward",
                "internal_node_id": "0.0-1.0-40.0",
                "time_elapsed": 46994,
                "key_press": 81,
                "condition": 1,
                "gend": "male",
                "trial_index": 41
            },
            {
                "rt": 916,
                "trial_type": "single-stim",
                "name": "Anna",
                "stimulus": "<p class='center-content'>Is this a smile?</p><p class='center-content'><img src='img/Anna_Affiliation.jpg' height='410' width='730'></img></p>",
                "expr": "affiliation",
                "internal_node_id": "0.0-1.0-41.0",
                "time_elapsed": 47914,
                "key_press": 81,
                "condition": 1,
                "gend": "female",
                "trial_index": 42
            },
            {
                "rt": 732,
                "trial_type": "single-stim",
                "name": "Jourdan",
                "stimulus": "<p class='center-content'>Is this a smile?</p><p class='center-content'><img src='img/Jourdan_Disgust.jpg' height='410' width='730'></img></p>",
                "expr": "disgust",
                "internal_node_id": "0.0-1.0-42.0",
                "time_elapsed": 48650,
                "key_press": 80,
                "condition": 1,
                "gend": "male",
                "trial_index": 43
            },
            {
                "rt": 891,
                "trial_type": "single-stim",
                "name": "Dmonte",
                "stimulus": "<p class='center-content'>Is this a smile?</p><p class='center-content'><img src='img/Dmonte.jpg' height='410' width='730'></img></p>",
                "expr": "neutral",
                "internal_node_id": "0.0-1.0-43.0",
                "time_elapsed": 49546,
                "key_press": 80,
                "condition": 1,
                "gend": "male",
                "trial_index": 44
            },
            {
                "rt": 917,
                "trial_type": "single-stim",
                "name": "Mary",
                "stimulus": "<p class='center-content'>Is this a smile?</p><p class='center-content'><img src='img/Mary_Disgust.jpg' height='410' width='730'></img></p>",
                "expr": "disgust",
                "internal_node_id": "0.0-1.0-44.0",
                "time_elapsed": 50467,
                "key_press": 80,
                "condition": 1,
                "gend": "female",
                "trial_index": 45
            },
            {
                "rt": 1019,
                "trial_type": "single-stim",
                "name": "Zach",
                "stimulus": "<p class='center-content'>Is this a smile?</p><p class='center-content'><img src='img/Zach_Dominance.jpg' height='410' width='730'></img></p>",
                "expr": "dominance",
                "internal_node_id": "0.0-1.0-45.0",
                "time_elapsed": 51490,
                "key_press": 81,
                "condition": 1,
                "gend": "male",
                "trial_index": 46
            },
            {
                "rt": 1357,
                "trial_type": "single-stim",
                "name": "Jessica",
                "stimulus": "<p class='center-content'>Is this a smile?</p><p class='center-content'><img src='img/Jessica.jpg' height='410' width='730'></img></p>",
                "expr": "neutral",
                "internal_node_id": "0.0-1.0-46.0",
                "time_elapsed": 52850,
                "key_press": 81,
                "condition": 1,
                "gend": "female",
                "trial_index": 47
            },
            {
                "rt": 1588,
                "trial_type": "single-stim",
                "name": "Andrew",
                "stimulus": "<p class='center-content'>Is this a smile?</p><p class='center-content'><img src='img/Andrew_Disgust.jpg' height='410' width='730'></img></p>",
                "expr": "disgust",
                "internal_node_id": "0.0-1.0-47.0",
                "time_elapsed": 54441,
                "key_press": 80,
                "condition": 1,
                "gend": "male",
                "trial_index": 48
            },
            {
                "rt": 1116,
                "trial_type": "single-stim",
                "name": "Lulu",
                "stimulus": "<p class='center-content'>Is this a smile?</p><p class='center-content'><img src='img/Lulu.jpg' height='410' width='730'></img></p>",
                "expr": "neutral",
                "internal_node_id": "0.0-1.0-48.0",
                "time_elapsed": 55562,
                "key_press": 80,
                "condition": 1,
                "gend": "female",
                "trial_index": 49
            },
            {
                "rt": 763,
                "trial_type": "single-stim",
                "name": "Lulu",
                "stimulus": "<p class='center-content'>Is this a smile?</p><p class='center-content'><img src='img/Lulu_Affiliation.jpg' height='410' width='730'></img></p>",
                "expr": "affiliation",
                "internal_node_id": "0.0-1.0-49.0",
                "time_elapsed": 56330,
                "key_press": 81,
                "condition": 1,
                "gend": "female",
                "trial_index": 50
            },
            {
                "rt": 843,
                "trial_type": "single-stim",
                "name": "Naomi",
                "stimulus": "<p class='center-content'>Is this a smile?</p><p class='center-content'><img src='img/Naomi.jpg' height='410' width='730'></img></p>",
                "expr": "neutral",
                "internal_node_id": "0.0-1.0-50.0",
                "time_elapsed": 57178,
                "key_press": 80,
                "condition": 1,
                "gend": "female",
                "trial_index": 51
            },
            {
                "rt": 787,
                "trial_type": "single-stim",
                "name": "Joeseph",
                "stimulus": "<p class='center-content'>Is this a smile?</p><p class='center-content'><img src='img/Joeseph_Disgust.jpg' height='410' width='730'></img></p>",
                "expr": "disgust",
                "internal_node_id": "0.0-1.0-51.0",
                "time_elapsed": 57970,
                "key_press": 80,
                "condition": 1,
                "gend": "male",
                "trial_index": 52
            },
            {
                "rt": 3389,
                "trial_type": "single-stim",
                "name": "Mary",
                "stimulus": "<p class='center-content'>Is this a smile?</p><p class='center-content'><img src='img/Mary_Affiliation.jpg' height='410' width='730'></img></p>",
                "expr": "affiliation",
                "internal_node_id": "0.0-1.0-52.0",
                "time_elapsed": 61364,
                "key_press": 80,
                "condition": 1,
                "gend": "female",
                "trial_index": 53
            },
            {
                "rt": 1233,
                "trial_type": "single-stim",
                "name": "Lulu",
                "stimulus": "<p class='center-content'>Is this a smile?</p><p class='center-content'><img src='img/Lulu_Dominance.jpg' height='410' width='730'></img></p>",
                "expr": "dominance",
                "internal_node_id": "0.0-1.0-53.0",
                "time_elapsed": 62601,
                "key_press": 81,
                "condition": 1,
                "gend": "female",
                "trial_index": 54
            },
            {
                "rt": 789,
                "trial_type": "single-stim",
                "name": "Jessica",
                "stimulus": "<p class='center-content'>Is this a smile?</p><p class='center-content'><img src='img/Jessica_Reward.jpg' height='410' width='730'></img></p>",
                "expr": "reward",
                "internal_node_id": "0.0-1.0-54.0",
                "time_elapsed": 63394,
                "key_press": 81,
                "condition": 1,
                "gend": "female",
                "trial_index": 55
            },
            {
                "rt": 731,
                "trial_type": "single-stim",
                "name": "Naomi",
                "stimulus": "<p class='center-content'>Is this a smile?</p><p class='center-content'><img src='img/Naomi_Dominance.jpg' height='410' width='730'></img></p>",
                "expr": "dominance",
                "internal_node_id": "0.0-1.0-55.0",
                "time_elapsed": 64130,
                "key_press": 81,
                "condition": 1,
                "gend": "female",
                "trial_index": 56
            },
            {
                "rt": 507,
                "trial_type": "single-stim",
                "name": "KJ",
                "stimulus": "<p class='center-content'>Is this a smile?</p><p class='center-content'><img src='img/KJ_Dominance.jpg' height='410' width='730'></img></p>",
                "expr": "dominance",
                "internal_node_id": "0.0-1.0-56.0",
                "time_elapsed": 64642,
                "key_press": 81,
                "condition": 1,
                "gend": "female",
                "trial_index": 57
            },
            {
                "rt": 548,
                "trial_type": "single-stim",
                "name": "Jessica",
                "stimulus": "<p class='center-content'>Is this a smile?</p><p class='center-content'><img src='img/Jessica_Dominance.jpg' height='410' width='730'></img></p>",
                "expr": "dominance",
                "internal_node_id": "0.0-1.0-57.0",
                "time_elapsed": 65194,
                "key_press": 81,
                "condition": 1,
                "gend": "female",
                "trial_index": 58
            },
            {
                "rt": 564,
                "trial_type": "single-stim",
                "name": "Joeseph",
                "stimulus": "<p class='center-content'>Is this a smile?</p><p class='center-content'><img src='img/Joeseph_Affiliation.jpg' height='410' width='730'></img></p>",
                "expr": "affiliation",
                "internal_node_id": "0.0-1.0-58.0",
                "time_elapsed": 65762,
                "key_press": 81,
                "condition": 1,
                "gend": "male",
                "trial_index": 59
            },
            {
                "rt": 675,
                "trial_type": "single-stim",
                "name": "Andrew",
                "stimulus": "<p class='center-content'>Is this a smile?</p><p class='center-content'><img src='img/Andrew.jpg' height='410' width='730'></img></p>",
                "expr": "neutral",
                "internal_node_id": "0.0-1.0-59.0",
                "time_elapsed": 66442,
                "key_press": 80,
                "condition": 1,
                "gend": "male",
                "trial_index": 60
            },
            {
                "rt": 676,
                "trial_type": "single-stim",
                "name": "Andrew",
                "stimulus": "<p class='center-content'>Is this a smile?</p><p class='center-content'><img src='img/Andrew_Affiliation.jpg' height='410' width='730'></img></p>",
                "expr": "affiliation",
                "internal_node_id": "0.0-1.0-60.0",
                "time_elapsed": 67122,
                "key_press": 81,
                "condition": 1,
                "gend": "male",
                "trial_index": 61
            },
            {
                "rt": 581,
                "trial_type": "single-stim",
                "name": "Andrew",
                "stimulus": "<p class='center-content'>Is this a smile?</p><p class='center-content'><img src='img/Andrew_Reward.jpg' height='410' width='730'></img></p>",
                "expr": "reward",
                "internal_node_id": "0.0-1.0-61.0",
                "time_elapsed": 67706,
                "key_press": 81,
                "condition": 1,
                "gend": "male",
                "trial_index": 62
            },
            {
                "rt": 787,
                "trial_type": "single-stim",
                "name": "Jourdan",
                "stimulus": "<p class='center-content'>Is this a smile?</p><p class='center-content'><img src='img/Jourdan_Affiliation.jpg' height='410' width='730'></img></p>",
                "expr": "affiliation",
                "internal_node_id": "0.0-1.0-62.0",
                "time_elapsed": 68501,
                "key_press": 81,
                "condition": 1,
                "gend": "male",
                "trial_index": 63
            },
            {
                "rt": 1201,
                "trial_type": "single-stim",
                "name": "Anthony",
                "stimulus": "<p class='center-content'>Is this a smile?</p><p class='center-content'><img src='img/Anthony_Affiliation.jpg' height='410' width='730'></img></p>",
                "expr": "affiliation",
                "internal_node_id": "0.0-1.0-63.0",
                "time_elapsed": 69706,
                "key_press": 81,
                "condition": 1,
                "gend": "male",
                "trial_index": 64
            },
            {
                "rt": 620,
                "trial_type": "single-stim",
                "name": "Dmonte",
                "stimulus": "<p class='center-content'>Is this a smile?</p><p class='center-content'><img src='img/Dmonte_Dominance.jpg' height='410' width='730'></img></p>",
                "expr": "dominance",
                "internal_node_id": "0.0-1.0-64.0",
                "time_elapsed": 70330,
                "key_press": 81,
                "condition": 1,
                "gend": "male",
                "trial_index": 65
            },
            {
                "rt": 1172,
                "trial_type": "single-stim",
                "name": "Marcus",
                "stimulus": "<p class='center-content'>Is this a smile?</p><p class='center-content'><img src='img/Marcus_Disgust.jpg' height='410' width='730'></img></p>",
                "expr": "disgust",
                "internal_node_id": "0.0-1.0-65.0",
                "time_elapsed": 71507,
                "key_press": 80,
                "condition": 1,
                "gend": "male",
                "trial_index": 66
            },
            {
                "rt": 875,
                "trial_type": "single-stim",
                "name": "Mary",
                "stimulus": "<p class='center-content'>Is this a smile?</p><p class='center-content'><img src='img/Mary_Dominance.jpg' height='410' width='730'></img></p>",
                "expr": "dominance",
                "internal_node_id": "0.0-1.0-66.0",
                "time_elapsed": 72386,
                "key_press": 80,
                "condition": 1,
                "gend": "female",
                "trial_index": 67
            },
            {
                "rt": 988,
                "trial_type": "single-stim",
                "name": "Lulu",
                "stimulus": "<p class='center-content'>Is this a smile?</p><p class='center-content'><img src='img/Lulu_Disgust.jpg' height='410' width='730'></img></p>",
                "expr": "disgust",
                "internal_node_id": "0.0-1.0-67.0",
                "time_elapsed": 73378,
                "key_press": 80,
                "condition": 1,
                "gend": "female",
                "trial_index": 68
            },
            {
                "rt": 1643,
                "trial_type": "single-stim",
                "name": "Naomi",
                "stimulus": "<p class='center-content'>Is this a smile?</p><p class='center-content'><img src='img/Naomi_DIsgust.jpg' height='410' width='730'></img></p>",
                "expr": "disgust",
                "internal_node_id": "0.0-1.0-68.0",
                "time_elapsed": 75025,
                "key_press": 80,
                "condition": 1,
                "gend": "female",
                "trial_index": 69
            },
            {
                "rt": 1029,
                "trial_type": "single-stim",
                "name": "Jourdan",
                "stimulus": "<p class='center-content'>Is this a smile?</p><p class='center-content'><img src='img/Jourdan.jpg' height='410' width='730'></img></p>",
                "expr": "neutral",
                "internal_node_id": "0.0-1.0-69.0",
                "time_elapsed": 76058,
                "key_press": 80,
                "condition": 1,
                "gend": "male",
                "trial_index": 70
            },
            {
                "rt": 724,
                "trial_type": "single-stim",
                "name": "Maurice",
                "stimulus": "<p class='center-content'>Is this a smile?</p><p class='center-content'><img src='img/Maurice_Disgust.jpg' height='410' width='730'></img></p>",
                "expr": "disgust",
                "internal_node_id": "0.0-1.0-70.0",
                "time_elapsed": 76786,
                "key_press": 80,
                "condition": 1,
                "gend": "male",
                "trial_index": 71
            },
            {
                "rt": 676,
                "trial_type": "single-stim",
                "name": "Dmonte",
                "stimulus": "<p class='center-content'>Is this a smile?</p><p class='center-content'><img src='img/Dmonte_Affiliation.jpg' height='410' width='730'></img></p>",
                "expr": "affiliation",
                "internal_node_id": "0.0-1.0-71.0",
                "time_elapsed": 77466,
                "key_press": 81,
                "condition": 1,
                "gend": "male",
                "trial_index": 72
            },
            {
                "rt": 659,
                "trial_type": "single-stim",
                "name": "Zach",
                "stimulus": "<p class='center-content'>Is this a smile?</p><p class='center-content'><img src='img/Zach_Disgust.jpg' height='410' width='730'></img></p>",
                "expr": "disgust",
                "internal_node_id": "0.0-1.0-72.0",
                "time_elapsed": 78130,
                "key_press": 80,
                "condition": 1,
                "gend": "male",
                "trial_index": 73
            },
            {
                "rt": 779,
                "trial_type": "single-stim",
                "name": "Maurice",
                "stimulus": "<p class='center-content'>Is this a smile?</p><p class='center-content'><img src='img/Maurice_Dominance.jpg' height='410' width='730'></img></p>",
                "expr": "dominance",
                "internal_node_id": "0.0-1.0-73.0",
                "time_elapsed": 78914,
                "key_press": 81,
                "condition": 1,
                "gend": "male",
                "trial_index": 74
            },
            {
                "rt": 731,
                "trial_type": "single-stim",
                "name": "Jessica",
                "stimulus": "<p class='center-content'>Is this a smile?</p><p class='center-content'><img src='img/Jessica_Affiliation.jpg' height='410' width='730'></img></p>",
                "expr": "affiliation",
                "internal_node_id": "0.0-1.0-74.0",
                "time_elapsed": 79650,
                "key_press": 81,
                "condition": 1,
                "gend": "female",
                "trial_index": 75
            },
            {
                "rt": 8783,
                "trial_type": "survey-multi-choice",
                "responses": "{\"Q0\":\"Male\",\"Q1\":\"White/Caucasian/European American\",\"Q2\":\"Right\",\"Q3\":\"Q\",\"Q4\":\"P\"}",
                "internal_node_id": "0.0-2.0",
                "time_elapsed": 88475,
                "trial_index": 76
            },
            {
                "rt": 2129,
                "trial_type": "survey-text",
                "responses": "{\"Q0\":\"\"}",
                "internal_node_id": "0.0-3.0",
                "time_elapsed": 91611,
                "trial_index": 77
            },
            {
                "rt": 11843,
                "trial_type": "text",
                "internal_node_id": "0.0-4.0",
                "time_elapsed": 104458,
                "key_press": 13,
                "trial_index": 78
            }
        ]
    },
    "AcceptTime": "2017-11-29T18:00:16Z",
    "HITId": "30F94FBDNRK94G1JP20DWT8BINZBT7",
    "Assignment": "",
    "AssignmentStatus": "Approved",
    "SubmitTime": "2017-11-29T18:10:51Z"
}