{
    "ApprovalTime": "2017-11-29T18:07:59Z",
    "AutoApprovalTime": "2017-11-29T18:07:25Z",
    "AssignmentId": "xxxx",
    "WorkerId": "subject4",
    "answers": {
        "data": [
            {
                "rt": 10384,
                "trial_type": "text",
                "internal_node_id": "0.0-0.0",
                "time_elapsed": 10387,
                "key_press": 32,
                "trial_index": 0
            },
            {
                "rt": 2714,
                "trial_type": "single-stim",
                "name": "KJ",
                "stimulus": "<p class='center-content'>Is this a smile?</p><p class='center-content'><img src='img/KJ_Affiliation.jpg' height='410' width='730'></img></p>",
                "expr": "affiliation",
                "internal_node_id": "0.0-1.0-0.0",
                "time_elapsed": 15101,
                "key_press": 80,
                "condition": 2,
                "gend": "female",
                "trial_index": 1
            },
            {
                "rt": 1000,
                "trial_type": "single-stim",
                "name": "KJ",
                "stimulus": "<p class='center-content'>Is this a smile?</p><p class='center-content'><img src='img/KJ_Disgust.jpg' height='410' width='730'></img></p>",
                "expr": "disgust",
                "internal_node_id": "0.0-1.0-1.0",
                "time_elapsed": 16111,
                "key_press": 81,
                "condition": 2,
                "gend": "female",
                "trial_index": 2
            },
            {
                "rt": 920,
                "trial_type": "single-stim",
                "name": "Lulu",
                "stimulus": "<p class='center-content'>Is this a smile?</p><p class='center-content'><img src='img/Lulu_Reward.jpg' height='410' width='730'></img></p>",
                "expr": "reward",
                "internal_node_id": "0.0-1.0-2.0",
                "time_elapsed": 17041,
                "key_press": 80,
                "condition": 2,
                "gend": "female",
                "trial_index": 3
            },
            {
                "rt": 865,
                "trial_type": "single-stim",
                "name": "Andrew",
                "stimulus": "<p class='center-content'>Is this a smile?</p><p class='center-content'><img src='img/Andrew_Disgust.jpg' height='410' width='730'></img></p>",
                "expr": "disgust",
                "internal_node_id": "0.0-1.0-3.0",
                "time_elapsed": 17916,
                "key_press": 81,
                "condition": 2,
                "gend": "male",
                "trial_index": 4
            },
            {
                "rt": 802,
                "trial_type": "single-stim",
                "name": "Anna",
                "stimulus": "<p class='center-content'>Is this a smile?</p><p class='center-content'><img src='img/Anna.jpg' height='410' width='730'></img></p>",
                "expr": "neutral",
                "internal_node_id": "0.0-1.0-4.0",
                "time_elapsed": 18728,
                "key_press": 81,
                "condition": 2,
                "gend": "female",
                "trial_index": 5
            },
            {
                "rt": 831,
                "trial_type": "single-stim",
                "name": "Anna",
                "stimulus": "<p class='center-content'>Is this a smile?</p><p class='center-content'><img src='img/Anna_Dominance.jpg' height='410' width='730'></img></p>",
                "expr": "dominance",
                "internal_node_id": "0.0-1.0-5.0",
                "time_elapsed": 19569,
                "key_press": 80,
                "condition": 2,
                "gend": "female",
                "trial_index": 6
            },
            {
                "rt": 1427,
                "trial_type": "single-stim",
                "name": "Ashley",
                "stimulus": "<p class='center-content'>Is this a smile?</p><p class='center-content'><img src='img/Ashley.jpg' height='410' width='730'></img></p>",
                "expr": "neutral",
                "internal_node_id": "0.0-1.0-6.0",
                "time_elapsed": 20999,
                "key_press": 81,
                "condition": 2,
                "gend": "female",
                "trial_index": 7
            },
            {
                "rt": 712,
                "trial_type": "single-stim",
                "name": "Maurice",
                "stimulus": "<p class='center-content'>Is this a smile?</p><p class='center-content'><img src='img/Maurice_Reward.jpg' height='410' width='730'></img></p>",
                "expr": "reward",
                "internal_node_id": "0.0-1.0-7.0",
                "time_elapsed": 21715,
                "key_press": 80,
                "condition": 2,
                "gend": "male",
                "trial_index": 8
            },
            {
                "rt": 2149,
                "trial_type": "single-stim",
                "name": "Naomi",
                "stimulus": "<p class='center-content'>Is this a smile?</p><p class='center-content'><img src='img/Naomi_DIsgust.jpg' height='410' width='730'></img></p>",
                "expr": "disgust",
                "internal_node_id": "0.0-1.0-8.0",
                "time_elapsed": 23867,
                "key_press": 81,
                "condition": 2,
                "gend": "female",
                "trial_index": 9
            },
            {
                "rt": 742,
                "trial_type": "single-stim",
                "name": "Jourdan",
                "stimulus": "<p class='center-content'>Is this a smile?</p><p class='center-content'><img src='img/Jourdan_Disgust.jpg' height='410' width='730'></img></p>",
                "expr": "disgust",
                "internal_node_id": "0.0-1.0-9.0",
                "time_elapsed": 24612,
                "key_press": 81,
                "condition": 2,
                "gend": "male",
                "trial_index": 10
            },
            {
                "rt": 701,
                "trial_type": "single-stim",
                "name": "Zach",
                "stimulus": "<p class='center-content'>Is this a smile?</p><p class='center-content'><img src='img/Zach_Dominance.jpg' height='410' width='730'></img></p>",
                "expr": "dominance",
                "internal_node_id": "0.0-1.0-10.0",
                "time_elapsed": 25315,
                "key_press": 80,
                "condition": 2,
                "gend": "male",
                "trial_index": 11
            },
            {
                "rt": 585,
                "trial_type": "single-stim",
                "name": "Anna",
                "stimulus": "<p class='center-content'>Is this a smile?</p><p class='center-content'><img src='img/Anna_Reward.jpg' height='410' width='730'></img></p>",
                "expr": "reward",
                "internal_node_id": "0.0-1.0-11.0",
                "time_elapsed": 25903,
                "key_press": 80,
                "condition": 2,
                "gend": "female",
                "trial_index": 12
            },
            {
                "rt": 1097,
                "trial_type": "single-stim",
                "name": "Anthony",
                "stimulus": "<p class='center-content'>Is this a smile?</p><p class='center-content'><img src='img/Anthony.jpg' height='410' width='730'></img></p>",
                "expr": "neutral",
                "internal_node_id": "0.0-1.0-12.0",
                "time_elapsed": 27002,
                "key_press": 80,
                "condition": 2,
                "gend": "male",
                "trial_index": 13
            },
            {
                "rt": 868,
                "trial_type": "single-stim",
                "name": "Mary",
                "stimulus": "<p class='center-content'>Is this a smile?</p><p class='center-content'><img src='img/Mary.jpg' height='410' width='730'></img></p>",
                "expr": "neutral",
                "internal_node_id": "0.0-1.0-13.0",
                "time_elapsed": 27874,
                "key_press": 81,
                "condition": 2,
                "gend": "female",
                "trial_index": 14
            },
            {
                "rt": 766,
                "trial_type": "single-stim",
                "name": "Mary",
                "stimulus": "<p class='center-content'>Is this a smile?</p><p class='center-content'><img src='img/Mary_Disgust.jpg' height='410' width='730'></img></p>",
                "expr": "disgust",
                "internal_node_id": "0.0-1.0-14.0",
                "time_elapsed": 28643,
                "key_press": 81,
                "condition": 2,
                "gend": "female",
                "trial_index": 15
            },
            {
                "rt": 712,
                "trial_type": "single-stim",
                "name": "Anna",
                "stimulus": "<p class='center-content'>Is this a smile?</p><p class='center-content'><img src='img/Anna_Affiliation.jpg' height='410' width='730'></img></p>",
                "expr": "affiliation",
                "internal_node_id": "0.0-1.0-15.0",
                "time_elapsed": 29357,
                "key_press": 80,
                "condition": 2,
                "gend": "female",
                "trial_index": 16
            },
            {
                "rt": 1325,
                "trial_type": "single-stim",
                "name": "Anthony",
                "stimulus": "<p class='center-content'>Is this a smile?</p><p class='center-content'><img src='img/Anthony_Affiliation.jpg' height='410' width='730'></img></p>",
                "expr": "affiliation",
                "internal_node_id": "0.0-1.0-16.0",
                "time_elapsed": 30685,
                "key_press": 80,
                "condition": 2,
                "gend": "male",
                "trial_index": 17
            },
            {
                "rt": 585,
                "trial_type": "single-stim",
                "name": "Zach",
                "stimulus": "<p class='center-content'>Is this a smile?</p><p class='center-content'><img src='img/Zach_Disgust.jpg' height='410' width='730'></img></p>",
                "expr": "disgust",
                "internal_node_id": "0.0-1.0-17.0",
                "time_elapsed": 31273,
                "key_press": 81,
                "condition": 2,
                "gend": "male",
                "trial_index": 18
            },
            {
                "rt": 1353,
                "trial_type": "single-stim",
                "name": "Maurice",
                "stimulus": "<p class='center-content'>Is this a smile?</p><p class='center-content'><img src='img/Maurice.jpg' height='410' width='730'></img></p>",
                "expr": "neutral",
                "internal_node_id": "0.0-1.0-18.0",
                "time_elapsed": 32628,
                "key_press": 81,
                "condition": 2,
                "gend": "male",
                "trial_index": 19
            },
            {
                "rt": 674,
                "trial_type": "single-stim",
                "name": "Naomi",
                "stimulus": "<p class='center-content'>Is this a smile?</p><p class='center-content'><img src='img/Naomi_Reward.jpg' height='410' width='730'></img></p>",
                "expr": "reward",
                "internal_node_id": "0.0-1.0-19.0",
                "time_elapsed": 33306,
                "key_press": 80,
                "condition": 2,
                "gend": "female",
                "trial_index": 20
            },
            {
                "rt": 696,
                "trial_type": "single-stim",
                "name": "Dmonte",
                "stimulus": "<p class='center-content'>Is this a smile?</p><p class='center-content'><img src='img/Dmonte_Disgust.jpg' height='410' width='730'></img></p>",
                "expr": "disgust",
                "internal_node_id": "0.0-1.0-20.0",
                "time_elapsed": 34004,
                "key_press": 81,
                "condition": 2,
                "gend": "male",
                "trial_index": 21
            },
            {
                "rt": 877,
                "trial_type": "single-stim",
                "name": "Jourdan",
                "stimulus": "<p class='center-content'>Is this a smile?</p><p class='center-content'><img src='img/Jourdan.jpg' height='410' width='730'></img></p>",
                "expr": "neutral",
                "internal_node_id": "0.0-1.0-21.0",
                "time_elapsed": 34885,
                "key_press": 80,
                "condition": 2,
                "gend": "male",
                "trial_index": 22
            },
            {
                "rt": 1395,
                "trial_type": "single-stim",
                "name": "Jessica",
                "stimulus": "<p class='center-content'>Is this a smile?</p><p class='center-content'><img src='img/Jessica_Affiliation.jpg' height='410' width='730'></img></p>",
                "expr": "affiliation",
                "internal_node_id": "0.0-1.0-22.0",
                "time_elapsed": 36283,
                "key_press": 80,
                "condition": 2,
                "gend": "female",
                "trial_index": 23
            },
            {
                "rt": 1180,
                "trial_type": "single-stim",
                "name": "Dmonte",
                "stimulus": "<p class='center-content'>Is this a smile?</p><p class='center-content'><img src='img/Dmonte.jpg' height='410' width='730'></img></p>",
                "expr": "neutral",
                "internal_node_id": "0.0-1.0-23.0",
                "time_elapsed": 37466,
                "key_press": 81,
                "condition": 2,
                "gend": "male",
                "trial_index": 24
            },
            {
                "rt": 653,
                "trial_type": "single-stim",
                "name": "Mary",
                "stimulus": "<p class='center-content'>Is this a smile?</p><p class='center-content'><img src='img/Mary_Dominance.jpg' height='410' width='730'></img></p>",
                "expr": "dominance",
                "internal_node_id": "0.0-1.0-24.0",
                "time_elapsed": 38121,
                "key_press": 81,
                "condition": 2,
                "gend": "female",
                "trial_index": 25
            },
            {
                "rt": 1611,
                "trial_type": "single-stim",
                "name": "Marcus",
                "stimulus": "<p class='center-content'>Is this a smile?</p><p class='center-content'><img src='img/Marcus.jpg' height='410' width='730'></img></p>",
                "expr": "neutral",
                "internal_node_id": "0.0-1.0-25.0",
                "time_elapsed": 39736,
                "key_press": 80,
                "condition": 2,
                "gend": "male",
                "trial_index": 26
            },
            {
                "rt": 1009,
                "trial_type": "single-stim",
                "name": "Jessica",
                "stimulus": "<p class='center-content'>Is this a smile?</p><p class='center-content'><img src='img/Jessica_Dominance.jpg' height='410' width='730'></img></p>",
                "expr": "dominance",
                "internal_node_id": "0.0-1.0-26.0",
                "time_elapsed": 40747,
                "key_press": 80,
                "condition": 2,
                "gend": "female",
                "trial_index": 27
            },
            {
                "rt": 831,
                "trial_type": "single-stim",
                "name": "Joeseph",
                "stimulus": "<p class='center-content'>Is this a smile?</p><p class='center-content'><img src='img/Joeseph_Dominance.jpg' height='410' width='730'></img></p>",
                "expr": "dominance",
                "internal_node_id": "0.0-1.0-27.0",
                "time_elapsed": 41581,
                "key_press": 80,
                "condition": 2,
                "gend": "male",
                "trial_index": 28
            },
            {
                "rt": 786,
                "trial_type": "single-stim",
                "name": "Joeseph",
                "stimulus": "<p class='center-content'>Is this a smile?</p><p class='center-content'><img src='img/Joeseph.jpg' height='410' width='730'></img></p>",
                "expr": "neutral",
                "internal_node_id": "0.0-1.0-28.0",
                "time_elapsed": 42370,
                "key_press": 81,
                "condition": 2,
                "gend": "male",
                "trial_index": 29
            },
            {
                "rt": 910,
                "trial_type": "single-stim",
                "name": "Anna",
                "stimulus": "<p class='center-content'>Is this a smile?</p><p class='center-content'><img src='img/Anna_Disgust.jpg' height='410' width='730'></img></p>",
                "expr": "disgust",
                "internal_node_id": "0.0-1.0-29.0",
                "time_elapsed": 43282,
                "key_press": 81,
                "condition": 2,
                "gend": "female",
                "trial_index": 30
            },
            {
                "rt": 667,
                "trial_type": "single-stim",
                "name": "Joeseph",
                "stimulus": "<p class='center-content'>Is this a smile?</p><p class='center-content'><img src='img/Joeseph_Affiliation.jpg' height='410' width='730'></img></p>",
                "expr": "affiliation",
                "internal_node_id": "0.0-1.0-30.0",
                "time_elapsed": 43953,
                "key_press": 80,
                "condition": 2,
                "gend": "male",
                "trial_index": 31
            },
            {
                "rt": 761,
                "trial_type": "single-stim",
                "name": "Andrew",
                "stimulus": "<p class='center-content'>Is this a smile?</p><p class='center-content'><img src='img/Andrew_Affiliation.jpg' height='410' width='730'></img></p>",
                "expr": "affiliation",
                "internal_node_id": "0.0-1.0-31.0",
                "time_elapsed": 44718,
                "key_press": 80,
                "condition": 2,
                "gend": "male",
                "trial_index": 32
            },
            {
                "rt": 663,
                "trial_type": "single-stim",
                "name": "Jourdan",
                "stimulus": "<p class='center-content'>Is this a smile?</p><p class='center-content'><img src='img/Jourdan_Affiliation.jpg' height='410' width='730'></img></p>",
                "expr": "affiliation",
                "internal_node_id": "0.0-1.0-32.0",
                "time_elapsed": 45384,
                "key_press": 80,
                "condition": 2,
                "gend": "male",
                "trial_index": 33
            },
            {
                "rt": 837,
                "trial_type": "single-stim",
                "name": "Ashley",
                "stimulus": "<p class='center-content'>Is this a smile?</p><p class='center-content'><img src='img/Ashley_Reward.jpg' height='410' width='730'></img></p>",
                "expr": "reward",
                "internal_node_id": "0.0-1.0-33.0",
                "time_elapsed": 46223,
                "key_press": 80,
                "condition": 2,
                "gend": "female",
                "trial_index": 34
            },
            {
                "rt": 891,
                "trial_type": "single-stim",
                "name": "Anthony",
                "stimulus": "<p class='center-content'>Is this a smile?</p><p class='center-content'><img src='img/Anthony_Reward.jpg' height='410' width='730'></img></p>",
                "expr": "reward",
                "internal_node_id": "0.0-1.0-34.0",
                "time_elapsed": 47118,
                "key_press": 80,
                "condition": 2,
                "gend": "male",
                "trial_index": 35
            },
            {
                "rt": 716,
                "trial_type": "single-stim",
                "name": "Zach",
                "stimulus": "<p class='center-content'>Is this a smile?</p><p class='center-content'><img src='img/Zach_Affiliation.jpg' height='410' width='730'></img></p>",
                "expr": "affiliation",
                "internal_node_id": "0.0-1.0-35.0",
                "time_elapsed": 47838,
                "key_press": 80,
                "condition": 2,
                "gend": "male",
                "trial_index": 36
            },
            {
                "rt": 594,
                "trial_type": "single-stim",
                "name": "KJ",
                "stimulus": "<p class='center-content'>Is this a smile?</p><p class='center-content'><img src='img/KJ_Dominance.jpg' height='410' width='730'></img></p>",
                "expr": "dominance",
                "internal_node_id": "0.0-1.0-36.0",
                "time_elapsed": 48435,
                "key_press": 80,
                "condition": 2,
                "gend": "female",
                "trial_index": 37
            },
            {
                "rt": 944,
                "trial_type": "single-stim",
                "name": "Andrew",
                "stimulus": "<p class='center-content'>Is this a smile?</p><p class='center-content'><img src='img/Andrew_Dominance.jpg' height='410' width='730'></img></p>",
                "expr": "dominance",
                "internal_node_id": "0.0-1.0-37.0",
                "time_elapsed": 49382,
                "key_press": 80,
                "condition": 2,
                "gend": "male",
                "trial_index": 38
            },
            {
                "rt": 562,
                "trial_type": "single-stim",
                "name": "KJ",
                "stimulus": "<p class='center-content'>Is this a smile?</p><p class='center-content'><img src='img/KJ_Reward.jpg' height='410' width='730'></img></p>",
                "expr": "reward",
                "internal_node_id": "0.0-1.0-38.0",
                "time_elapsed": 49947,
                "key_press": 80,
                "condition": 2,
                "gend": "female",
                "trial_index": 39
            },
            {
                "rt": 830,
                "trial_type": "single-stim",
                "name": "Zach",
                "stimulus": "<p class='center-content'>Is this a smile?</p><p class='center-content'><img src='img/Zach.jpg' height='410' width='730'></img></p>",
                "expr": "neutral",
                "internal_node_id": "0.0-1.0-39.0",
                "time_elapsed": 50779,
                "key_press": 81,
                "condition": 2,
                "gend": "male",
                "trial_index": 40
            },
            {
                "rt": 604,
                "trial_type": "single-stim",
                "name": "KJ",
                "stimulus": "<p class='center-content'>Is this a smile?</p><p class='center-content'><img src='img/KJ.jpg' height='410' width='730'></img></p>",
                "expr": "neutral",
                "internal_node_id": "0.0-1.0-40.0",
                "time_elapsed": 51386,
                "key_press": 81,
                "condition": 2,
                "gend": "female",
                "trial_index": 41
            },
            {
                "rt": 592,
                "trial_type": "single-stim",
                "name": "Jessica",
                "stimulus": "<p class='center-content'>Is this a smile?</p><p class='center-content'><img src='img/Jessica.jpg' height='410' width='730'></img></p>",
                "expr": "neutral",
                "internal_node_id": "0.0-1.0-41.0",
                "time_elapsed": 51981,
                "key_press": 81,
                "condition": 2,
                "gend": "female",
                "trial_index": 42
            },
            {
                "rt": 788,
                "trial_type": "single-stim",
                "name": "Marcus",
                "stimulus": "<p class='center-content'>Is this a smile?</p><p class='center-content'><img src='img/Marcus_Disgust.jpg' height='410' width='730'></img></p>",
                "expr": "disgust",
                "internal_node_id": "0.0-1.0-42.0",
                "time_elapsed": 52773,
                "key_press": 81,
                "condition": 2,
                "gend": "male",
                "trial_index": 43
            },
            {
                "rt": 869,
                "trial_type": "single-stim",
                "name": "Ashley",
                "stimulus": "<p class='center-content'>Is this a smile?</p><p class='center-content'><img src='img/Ashley_Dominance.jpg' height='410' width='730'></img></p>",
                "expr": "dominance",
                "internal_node_id": "0.0-1.0-43.0",
                "time_elapsed": 53645,
                "key_press": 81,
                "condition": 2,
                "gend": "female",
                "trial_index": 44
            },
            {
                "rt": 695,
                "trial_type": "single-stim",
                "name": "Jessica",
                "stimulus": "<p class='center-content'>Is this a smile?</p><p class='center-content'><img src='img/Jessica_Disgust.jpg' height='410' width='730'></img></p>",
                "expr": "disgust",
                "internal_node_id": "0.0-1.0-44.0",
                "time_elapsed": 54342,
                "key_press": 81,
                "condition": 2,
                "gend": "female",
                "trial_index": 45
            },
            {
                "rt": 1388,
                "trial_type": "single-stim",
                "name": "Marcus",
                "stimulus": "<p class='center-content'>Is this a smile?</p><p class='center-content'><img src='img/Marcus_Affiliation.jpg' height='410' width='730'></img></p>",
                "expr": "affiliation",
                "internal_node_id": "0.0-1.0-45.0",
                "time_elapsed": 55732,
                "key_press": 80,
                "condition": 2,
                "gend": "male",
                "trial_index": 46
            },
            {
                "rt": 766,
                "trial_type": "single-stim",
                "name": "Dmonte",
                "stimulus": "<p class='center-content'>Is this a smile?</p><p class='center-content'><img src='img/Dmonte_Dominance.jpg' height='410' width='730'></img></p>",
                "expr": "dominance",
                "internal_node_id": "0.0-1.0-46.0",
                "time_elapsed": 56500,
                "key_press": 80,
                "condition": 2,
                "gend": "male",
                "trial_index": 47
            },
            {
                "rt": 562,
                "trial_type": "single-stim",
                "name": "Marcus",
                "stimulus": "<p class='center-content'>Is this a smile?</p><p class='center-content'><img src='img/Marcus_Reward.jpg' height='410' width='730'></img></p>",
                "expr": "reward",
                "internal_node_id": "0.0-1.0-47.0",
                "time_elapsed": 57064,
                "key_press": 80,
                "condition": 2,
                "gend": "male",
                "trial_index": 48
            },
            {
                "rt": 707,
                "trial_type": "single-stim",
                "name": "Lulu",
                "stimulus": "<p class='center-content'>Is this a smile?</p><p class='center-content'><img src='img/Lulu_Affiliation.jpg' height='410' width='730'></img></p>",
                "expr": "affiliation",
                "internal_node_id": "0.0-1.0-48.0",
                "time_elapsed": 57775,
                "key_press": 80,
                "condition": 2,
                "gend": "female",
                "trial_index": 49
            },
            {
                "rt": 819,
                "trial_type": "single-stim",
                "name": "Jourdan",
                "stimulus": "<p class='center-content'>Is this a smile?</p><p class='center-content'><img src='img/Jourdan_Reward.jpg' height='410' width='730'></img></p>",
                "expr": "reward",
                "internal_node_id": "0.0-1.0-49.0",
                "time_elapsed": 58596,
                "key_press": 80,
                "condition": 2,
                "gend": "male",
                "trial_index": 50
            },
            {
                "rt": 693,
                "trial_type": "single-stim",
                "name": "Jourdan",
                "stimulus": "<p class='center-content'>Is this a smile?</p><p class='center-content'><img src='img/Jourdan_Dominance.jpg' height='410' width='730'></img></p>",
                "expr": "dominance",
                "internal_node_id": "0.0-1.0-50.0",
                "time_elapsed": 59292,
                "key_press": 80,
                "condition": 2,
                "gend": "male",
                "trial_index": 51
            },
            {
                "rt": 649,
                "trial_type": "single-stim",
                "name": "Dmonte",
                "stimulus": "<p class='center-content'>Is this a smile?</p><p class='center-content'><img src='img/Dmonte_Reward.jpg' height='410' width='730'></img></p>",
                "expr": "reward",
                "internal_node_id": "0.0-1.0-51.0",
                "time_elapsed": 59945,
                "key_press": 80,
                "condition": 2,
                "gend": "male",
                "trial_index": 52
            },
            {
                "rt": 728,
                "trial_type": "single-stim",
                "name": "Maurice",
                "stimulus": "<p class='center-content'>Is this a smile?</p><p class='center-content'><img src='img/Maurice_Disgust.jpg' height='410' width='730'></img></p>",
                "expr": "disgust",
                "internal_node_id": "0.0-1.0-52.0",
                "time_elapsed": 60677,
                "key_press": 81,
                "condition": 2,
                "gend": "male",
                "trial_index": 53
            },
            {
                "rt": 760,
                "trial_type": "single-stim",
                "name": "Andrew",
                "stimulus": "<p class='center-content'>Is this a smile?</p><p class='center-content'><img src='img/Andrew_Reward.jpg' height='410' width='730'></img></p>",
                "expr": "reward",
                "internal_node_id": "0.0-1.0-53.0",
                "time_elapsed": 61439,
                "key_press": 80,
                "condition": 2,
                "gend": "male",
                "trial_index": 54
            },
            {
                "rt": 798,
                "trial_type": "single-stim",
                "name": "Anthony",
                "stimulus": "<p class='center-content'>Is this a smile?</p><p class='center-content'><img src='img/Anthony_Disgust.jpg' height='410' width='730'></img></p>",
                "expr": "disgust",
                "internal_node_id": "0.0-1.0-54.0",
                "time_elapsed": 62240,
                "key_press": 80,
                "condition": 2,
                "gend": "male",
                "trial_index": 55
            },
            {
                "rt": 2122,
                "trial_type": "single-stim",
                "name": "Lulu",
                "stimulus": "<p class='center-content'>Is this a smile?</p><p class='center-content'><img src='img/Lulu.jpg' height='410' width='730'></img></p>",
                "expr": "neutral",
                "internal_node_id": "0.0-1.0-55.0",
                "time_elapsed": 64364,
                "key_press": 81,
                "condition": 2,
                "gend": "female",
                "trial_index": 56
            },
            {
                "rt": 643,
                "trial_type": "single-stim",
                "name": "Marcus",
                "stimulus": "<p class='center-content'>Is this a smile?</p><p class='center-content'><img src='img/Marcus_Dominance.jpg' height='410' width='730'></img></p>",
                "expr": "dominance",
                "internal_node_id": "0.0-1.0-56.0",
                "time_elapsed": 65009,
                "key_press": 81,
                "condition": 2,
                "gend": "male",
                "trial_index": 57
            },
            {
                "rt": 712,
                "trial_type": "single-stim",
                "name": "Mary",
                "stimulus": "<p class='center-content'>Is this a smile?</p><p class='center-content'><img src='img/Mary_Reward.jpg' height='410' width='730'></img></p>",
                "expr": "reward",
                "internal_node_id": "0.0-1.0-57.0",
                "time_elapsed": 65724,
                "key_press": 80,
                "condition": 2,
                "gend": "female",
                "trial_index": 58
            },
            {
                "rt": 828,
                "trial_type": "single-stim",
                "name": "Maurice",
                "stimulus": "<p class='center-content'>Is this a smile?</p><p class='center-content'><img src='img/Maurice_Affiliation.jpg' height='410' width='730'></img></p>",
                "expr": "affiliation",
                "internal_node_id": "0.0-1.0-58.0",
                "time_elapsed": 66554,
                "key_press": 80,
                "condition": 2,
                "gend": "male",
                "trial_index": 59
            },
            {
                "rt": 1464,
                "trial_type": "single-stim",
                "name": "Anthony",
                "stimulus": "<p class='center-content'>Is this a smile?</p><p class='center-content'><img src='img/Anthony_Dominance.jpg' height='410' width='730'></img></p>",
                "expr": "dominance",
                "internal_node_id": "0.0-1.0-59.0",
                "time_elapsed": 68020,
                "key_press": 80,
                "condition": 2,
                "gend": "male",
                "trial_index": 60
            },
            {
                "rt": 816,
                "trial_type": "single-stim",
                "name": "Naomi",
                "stimulus": "<p class='center-content'>Is this a smile?</p><p class='center-content'><img src='img/Naomi_Dominance.jpg' height='410' width='730'></img></p>",
                "expr": "dominance",
                "internal_node_id": "0.0-1.0-60.0",
                "time_elapsed": 68839,
                "key_press": 80,
                "condition": 2,
                "gend": "female",
                "trial_index": 61
            },
            {
                "rt": 672,
                "trial_type": "single-stim",
                "name": "Joeseph",
                "stimulus": "<p class='center-content'>Is this a smile?</p><p class='center-content'><img src='img/Joeseph_Reward.jpg' height='410' width='730'></img></p>",
                "expr": "reward",
                "internal_node_id": "0.0-1.0-61.0",
                "time_elapsed": 69514,
                "key_press": 80,
                "condition": 2,
                "gend": "male",
                "trial_index": 62
            },
            {
                "rt": 839,
                "trial_type": "single-stim",
                "name": "Zach",
                "stimulus": "<p class='center-content'>Is this a smile?</p><p class='center-content'><img src='img/Zach_Reward.jpg' height='410' width='730'></img></p>",
                "expr": "reward",
                "internal_node_id": "0.0-1.0-62.0",
                "time_elapsed": 70355,
                "key_press": 80,
                "condition": 2,
                "gend": "male",
                "trial_index": 63
            },
            {
                "rt": 752,
                "trial_type": "single-stim",
                "name": "Jessica",
                "stimulus": "<p class='center-content'>Is this a smile?</p><p class='center-content'><img src='img/Jessica_Reward.jpg' height='410' width='730'></img></p>",
                "expr": "reward",
                "internal_node_id": "0.0-1.0-63.0",
                "time_elapsed": 71109,
                "key_press": 80,
                "condition": 2,
                "gend": "female",
                "trial_index": 64
            },
            {
                "rt": 503,
                "trial_type": "single-stim",
                "name": "Ashley",
                "stimulus": "<p class='center-content'>Is this a smile?</p><p class='center-content'><img src='img/Ashley_Affiliation.jpg' height='410' width='730'></img></p>",
                "expr": "affiliation",
                "internal_node_id": "0.0-1.0-64.0",
                "time_elapsed": 71615,
                "key_press": 80,
                "condition": 2,
                "gend": "female",
                "trial_index": 65
            },
            {
                "rt": 607,
                "trial_type": "single-stim",
                "name": "Naomi",
                "stimulus": "<p class='center-content'>Is this a smile?</p><p class='center-content'><img src='img/Naomi_Affiliation.jpg' height='410' width='730'></img></p>",
                "expr": "affiliation",
                "internal_node_id": "0.0-1.0-65.0",
                "time_elapsed": 72224,
                "key_press": 80,
                "condition": 2,
                "gend": "female",
                "trial_index": 66
            },
            {
                "rt": 539,
                "trial_type": "single-stim",
                "name": "Mary",
                "stimulus": "<p class='center-content'>Is this a smile?</p><p class='center-content'><img src='img/Mary_Affiliation.jpg' height='410' width='730'></img></p>",
                "expr": "affiliation",
                "internal_node_id": "0.0-1.0-66.0",
                "time_elapsed": 72766,
                "key_press": 80,
                "condition": 2,
                "gend": "female",
                "trial_index": 67
            },
            {
                "rt": 718,
                "trial_type": "single-stim",
                "name": "Lulu",
                "stimulus": "<p class='center-content'>Is this a smile?</p><p class='center-content'><img src='img/Lulu_Dominance.jpg' height='410' width='730'></img></p>",
                "expr": "dominance",
                "internal_node_id": "0.0-1.0-67.0",
                "time_elapsed": 73487,
                "key_press": 80,
                "condition": 2,
                "gend": "female",
                "trial_index": 68
            },
            {
                "rt": 663,
                "trial_type": "single-stim",
                "name": "Ashley",
                "stimulus": "<p class='center-content'>Is this a smile?</p><p class='center-content'><img src='img/Ashley_Disgust.jpg' height='410' width='730'></img></p>",
                "expr": "disgust",
                "internal_node_id": "0.0-1.0-68.0",
                "time_elapsed": 74153,
                "key_press": 81,
                "condition": 2,
                "gend": "female",
                "trial_index": 69
            },
            {
                "rt": 598,
                "trial_type": "single-stim",
                "name": "Joeseph",
                "stimulus": "<p class='center-content'>Is this a smile?</p><p class='center-content'><img src='img/Joeseph_Disgust.jpg' height='410' width='730'></img></p>",
                "expr": "disgust",
                "internal_node_id": "0.0-1.0-69.0",
                "time_elapsed": 74754,
                "key_press": 81,
                "condition": 2,
                "gend": "male",
                "trial_index": 70
            },
            {
                "rt": 895,
                "trial_type": "single-stim",
                "name": "Dmonte",
                "stimulus": "<p class='center-content'>Is this a smile?</p><p class='center-content'><img src='img/Dmonte_Affiliation.jpg' height='410' width='730'></img></p>",
                "expr": "affiliation",
                "internal_node_id": "0.0-1.0-70.0",
                "time_elapsed": 75651,
                "key_press": 80,
                "condition": 2,
                "gend": "male",
                "trial_index": 71
            },
            {
                "rt": 869,
                "trial_type": "single-stim",
                "name": "Naomi",
                "stimulus": "<p class='center-content'>Is this a smile?</p><p class='center-content'><img src='img/Naomi.jpg' height='410' width='730'></img></p>",
                "expr": "neutral",
                "internal_node_id": "0.0-1.0-71.0",
                "time_elapsed": 76523,
                "key_press": 80,
                "condition": 2,
                "gend": "female",
                "trial_index": 72
            },
            {
                "rt": 864,
                "trial_type": "single-stim",
                "name": "Andrew",
                "stimulus": "<p class='center-content'>Is this a smile?</p><p class='center-content'><img src='img/Andrew.jpg' height='410' width='730'></img></p>",
                "expr": "neutral",
                "internal_node_id": "0.0-1.0-72.0",
                "time_elapsed": 77389,
                "key_press": 81,
                "condition": 2,
                "gend": "male",
                "trial_index": 73
            },
            {
                "rt": 943,
                "trial_type": "single-stim",
                "name": "Lulu",
                "stimulus": "<p class='center-content'>Is this a smile?</p><p class='center-content'><img src='img/Lulu_Disgust.jpg' height='410' width='730'></img></p>",
                "expr": "disgust",
                "internal_node_id": "0.0-1.0-73.0",
                "time_elapsed": 78336,
                "key_press": 81,
                "condition": 2,
                "gend": "female",
                "trial_index": 74
            },
            {
                "rt": 623,
                "trial_type": "single-stim",
                "name": "Maurice",
                "stimulus": "<p class='center-content'>Is this a smile?</p><p class='center-content'><img src='img/Maurice_Dominance.jpg' height='410' width='730'></img></p>",
                "expr": "dominance",
                "internal_node_id": "0.0-1.0-74.0",
                "time_elapsed": 78962,
                "key_press": 81,
                "condition": 2,
                "gend": "male",
                "trial_index": 75
            },
            {
                "rt": 15217,
                "trial_type": "survey-multi-choice",
                "responses": "{\"Q0\":\"Female\",\"Q1\":\"White/Caucasian/European American\",\"Q2\":\"Left\",\"Q3\":\"P\",\"Q4\":\"Q\"}",
                "internal_node_id": "0.0-2.0",
                "time_elapsed": 94205,
                "trial_index": 76
            },
            {
                "rt": 3508,
                "trial_type": "survey-text",
                "responses": "{\"Q0\":\"no\"}",
                "internal_node_id": "0.0-3.0",
                "time_elapsed": 98717,
                "trial_index": 77
            },
            {
                "rt": 3835,
                "trial_type": "text",
                "internal_node_id": "0.0-4.0",
                "time_elapsed": 103555,
                "key_press": 32,
                "trial_index": 78
            }
        ]
    },
    "AcceptTime": "2017-11-29T18:00:11Z",
    "HITId": "30F94FBDNRK94G1JP20DWT8BINZBT7",
    "Assignment": "",
    "AssignmentStatus": "Approved",
    "SubmitTime": "2017-11-29T18:02:25Z"
}