{
    "ApprovalTime": "2017-11-29T18:10:59Z",
    "AutoApprovalTime": "2017-11-29T18:10:23Z",
    "AssignmentId": "xxxx",
    "WorkerId": "subject5",
    "answers": {
        "data": [
            {
                "rt": 12074,
                "trial_type": "text",
                "internal_node_id": "0.0-0.0",
                "time_elapsed": 12075,
                "key_press": 32,
                "trial_index": 0
            },
            {
                "rt": 1146,
                "trial_type": "single-stim",
                "name": "Jourdan",
                "stimulus": "<p class='center-content'>Is this a smile?</p><p class='center-content'><img src='img/Jourdan_Reward.jpg' height='410' width='730'></img></p>",
                "expr": "reward",
                "internal_node_id": "0.0-1.0-0.0",
                "time_elapsed": 15226,
                "key_press": 81,
                "condition": 1,
                "gend": "male",
                "trial_index": 1
            },
            {
                "rt": 953,
                "trial_type": "single-stim",
                "name": "Naomi",
                "stimulus": "<p class='center-content'>Is this a smile?</p><p class='center-content'><img src='img/Naomi_Affiliation.jpg' height='410' width='730'></img></p>",
                "expr": "affiliation",
                "internal_node_id": "0.0-1.0-1.0",
                "time_elapsed": 16183,
                "key_press": 81,
                "condition": 1,
                "gend": "female",
                "trial_index": 2
            },
            {
                "rt": 1334,
                "trial_type": "single-stim",
                "name": "Ashley",
                "stimulus": "<p class='center-content'>Is this a smile?</p><p class='center-content'><img src='img/Ashley.jpg' height='410' width='730'></img></p>",
                "expr": "neutral",
                "internal_node_id": "0.0-1.0-2.0",
                "time_elapsed": 17520,
                "key_press": 80,
                "condition": 1,
                "gend": "female",
                "trial_index": 3
            },
            {
                "rt": 790,
                "trial_type": "single-stim",
                "name": "KJ",
                "stimulus": "<p class='center-content'>Is this a smile?</p><p class='center-content'><img src='img/KJ_Disgust.jpg' height='410' width='730'></img></p>",
                "expr": "disgust",
                "internal_node_id": "0.0-1.0-3.0",
                "time_elapsed": 18312,
                "key_press": 80,
                "condition": 1,
                "gend": "female",
                "trial_index": 4
            },
            {
                "rt": 718,
                "trial_type": "single-stim",
                "name": "Anna",
                "stimulus": "<p class='center-content'>Is this a smile?</p><p class='center-content'><img src='img/Anna_Affiliation.jpg' height='410' width='730'></img></p>",
                "expr": "affiliation",
                "internal_node_id": "0.0-1.0-4.0",
                "time_elapsed": 19032,
                "key_press": 81,
                "condition": 1,
                "gend": "female",
                "trial_index": 5
            },
            {
                "rt": 998,
                "trial_type": "single-stim",
                "name": "Jourdan",
                "stimulus": "<p class='center-content'>Is this a smile?</p><p class='center-content'><img src='img/Jourdan_Dominance.jpg' height='410' width='730'></img></p>",
                "expr": "dominance",
                "internal_node_id": "0.0-1.0-5.0",
                "time_elapsed": 20032,
                "key_press": 80,
                "condition": 1,
                "gend": "male",
                "trial_index": 6
            },
            {
                "rt": 933,
                "trial_type": "single-stim",
                "name": "Lulu",
                "stimulus": "<p class='center-content'>Is this a smile?</p><p class='center-content'><img src='img/Lulu_Dominance.jpg' height='410' width='730'></img></p>",
                "expr": "dominance",
                "internal_node_id": "0.0-1.0-6.0",
                "time_elapsed": 20968,
                "key_press": 81,
                "condition": 1,
                "gend": "female",
                "trial_index": 7
            },
            {
                "rt": 838,
                "trial_type": "single-stim",
                "name": "Anna",
                "stimulus": "<p class='center-content'>Is this a smile?</p><p class='center-content'><img src='img/Anna_Disgust.jpg' height='410' width='730'></img></p>",
                "expr": "disgust",
                "internal_node_id": "0.0-1.0-7.0",
                "time_elapsed": 21808,
                "key_press": 80,
                "condition": 1,
                "gend": "female",
                "trial_index": 8
            },
            {
                "rt": 1087,
                "trial_type": "single-stim",
                "name": "Dmonte",
                "stimulus": "<p class='center-content'>Is this a smile?</p><p class='center-content'><img src='img/Dmonte.jpg' height='410' width='730'></img></p>",
                "expr": "neutral",
                "internal_node_id": "0.0-1.0-8.0",
                "time_elapsed": 22897,
                "key_press": 80,
                "condition": 1,
                "gend": "male",
                "trial_index": 9
            },
            {
                "rt": 684,
                "trial_type": "single-stim",
                "name": "Anthony",
                "stimulus": "<p class='center-content'>Is this a smile?</p><p class='center-content'><img src='img/Anthony.jpg' height='410' width='730'></img></p>",
                "expr": "neutral",
                "internal_node_id": "0.0-1.0-9.0",
                "time_elapsed": 23584,
                "key_press": 80,
                "condition": 1,
                "gend": "male",
                "trial_index": 10
            },
            {
                "rt": 822,
                "trial_type": "single-stim",
                "name": "Anthony",
                "stimulus": "<p class='center-content'>Is this a smile?</p><p class='center-content'><img src='img/Anthony_Dominance.jpg' height='410' width='730'></img></p>",
                "expr": "dominance",
                "internal_node_id": "0.0-1.0-10.0",
                "time_elapsed": 24407,
                "key_press": 80,
                "condition": 1,
                "gend": "male",
                "trial_index": 11
            },
            {
                "rt": 790,
                "trial_type": "single-stim",
                "name": "Jessica",
                "stimulus": "<p class='center-content'>Is this a smile?</p><p class='center-content'><img src='img/Jessica_Disgust.jpg' height='410' width='730'></img></p>",
                "expr": "disgust",
                "internal_node_id": "0.0-1.0-11.0",
                "time_elapsed": 25200,
                "key_press": 80,
                "condition": 1,
                "gend": "female",
                "trial_index": 12
            },
            {
                "rt": 773,
                "trial_type": "single-stim",
                "name": "KJ",
                "stimulus": "<p class='center-content'>Is this a smile?</p><p class='center-content'><img src='img/KJ.jpg' height='410' width='730'></img></p>",
                "expr": "neutral",
                "internal_node_id": "0.0-1.0-12.0",
                "time_elapsed": 25976,
                "key_press": 80,
                "condition": 1,
                "gend": "female",
                "trial_index": 13
            },
            {
                "rt": 702,
                "trial_type": "single-stim",
                "name": "Mary",
                "stimulus": "<p class='center-content'>Is this a smile?</p><p class='center-content'><img src='img/Mary_Disgust.jpg' height='410' width='730'></img></p>",
                "expr": "disgust",
                "internal_node_id": "0.0-1.0-13.0",
                "time_elapsed": 26680,
                "key_press": 80,
                "condition": 1,
                "gend": "female",
                "trial_index": 14
            },
            {
                "rt": 694,
                "trial_type": "single-stim",
                "name": "Jourdan",
                "stimulus": "<p class='center-content'>Is this a smile?</p><p class='center-content'><img src='img/Jourdan_Disgust.jpg' height='410' width='730'></img></p>",
                "expr": "disgust",
                "internal_node_id": "0.0-1.0-14.0",
                "time_elapsed": 27376,
                "key_press": 80,
                "condition": 1,
                "gend": "male",
                "trial_index": 15
            },
            {
                "rt": 1045,
                "trial_type": "single-stim",
                "name": "Marcus",
                "stimulus": "<p class='center-content'>Is this a smile?</p><p class='center-content'><img src='img/Marcus.jpg' height='410' width='730'></img></p>",
                "expr": "neutral",
                "internal_node_id": "0.0-1.0-15.0",
                "time_elapsed": 28424,
                "key_press": 80,
                "condition": 1,
                "gend": "male",
                "trial_index": 16
            },
            {
                "rt": 718,
                "trial_type": "single-stim",
                "name": "Andrew",
                "stimulus": "<p class='center-content'>Is this a smile?</p><p class='center-content'><img src='img/Andrew_Reward.jpg' height='410' width='730'></img></p>",
                "expr": "reward",
                "internal_node_id": "0.0-1.0-16.0",
                "time_elapsed": 29143,
                "key_press": 81,
                "condition": 1,
                "gend": "male",
                "trial_index": 17
            },
            {
                "rt": 1054,
                "trial_type": "single-stim",
                "name": "Lulu",
                "stimulus": "<p class='center-content'>Is this a smile?</p><p class='center-content'><img src='img/Lulu_Affiliation.jpg' height='410' width='730'></img></p>",
                "expr": "affiliation",
                "internal_node_id": "0.0-1.0-17.0",
                "time_elapsed": 30200,
                "key_press": 81,
                "condition": 1,
                "gend": "female",
                "trial_index": 18
            },
            {
                "rt": 758,
                "trial_type": "single-stim",
                "name": "Dmonte",
                "stimulus": "<p class='center-content'>Is this a smile?</p><p class='center-content'><img src='img/Dmonte_Disgust.jpg' height='410' width='730'></img></p>",
                "expr": "disgust",
                "internal_node_id": "0.0-1.0-18.0",
                "time_elapsed": 30960,
                "key_press": 80,
                "condition": 1,
                "gend": "male",
                "trial_index": 19
            },
            {
                "rt": 669,
                "trial_type": "single-stim",
                "name": "Marcus",
                "stimulus": "<p class='center-content'>Is this a smile?</p><p class='center-content'><img src='img/Marcus_Disgust.jpg' height='410' width='730'></img></p>",
                "expr": "disgust",
                "internal_node_id": "0.0-1.0-19.0",
                "time_elapsed": 31631,
                "key_press": 80,
                "condition": 1,
                "gend": "male",
                "trial_index": 20
            },
            {
                "rt": 829,
                "trial_type": "single-stim",
                "name": "Zach",
                "stimulus": "<p class='center-content'>Is this a smile?</p><p class='center-content'><img src='img/Zach_Affiliation.jpg' height='410' width='730'></img></p>",
                "expr": "affiliation",
                "internal_node_id": "0.0-1.0-20.0",
                "time_elapsed": 32464,
                "key_press": 81,
                "condition": 1,
                "gend": "male",
                "trial_index": 21
            },
            {
                "rt": 951,
                "trial_type": "single-stim",
                "name": "Mary",
                "stimulus": "<p class='center-content'>Is this a smile?</p><p class='center-content'><img src='img/Mary.jpg' height='410' width='730'></img></p>",
                "expr": "neutral",
                "internal_node_id": "0.0-1.0-21.0",
                "time_elapsed": 33417,
                "key_press": 80,
                "condition": 1,
                "gend": "female",
                "trial_index": 22
            },
            {
                "rt": 1134,
                "trial_type": "single-stim",
                "name": "Jessica",
                "stimulus": "<p class='center-content'>Is this a smile?</p><p class='center-content'><img src='img/Jessica.jpg' height='410' width='730'></img></p>",
                "expr": "neutral",
                "internal_node_id": "0.0-1.0-22.0",
                "time_elapsed": 34553,
                "key_press": 80,
                "condition": 1,
                "gend": "female",
                "trial_index": 23
            },
            {
                "rt": 727,
                "trial_type": "single-stim",
                "name": "Ashley",
                "stimulus": "<p class='center-content'>Is this a smile?</p><p class='center-content'><img src='img/Ashley_Reward.jpg' height='410' width='730'></img></p>",
                "expr": "reward",
                "internal_node_id": "0.0-1.0-23.0",
                "time_elapsed": 35281,
                "key_press": 81,
                "condition": 1,
                "gend": "female",
                "trial_index": 24
            },
            {
                "rt": 757,
                "trial_type": "single-stim",
                "name": "Mary",
                "stimulus": "<p class='center-content'>Is this a smile?</p><p class='center-content'><img src='img/Mary_Affiliation.jpg' height='410' width='730'></img></p>",
                "expr": "affiliation",
                "internal_node_id": "0.0-1.0-24.0",
                "time_elapsed": 36040,
                "key_press": 81,
                "condition": 1,
                "gend": "female",
                "trial_index": 25
            },
            {
                "rt": 726,
                "trial_type": "single-stim",
                "name": "Naomi",
                "stimulus": "<p class='center-content'>Is this a smile?</p><p class='center-content'><img src='img/Naomi_Reward.jpg' height='410' width='730'></img></p>",
                "expr": "reward",
                "internal_node_id": "0.0-1.0-25.0",
                "time_elapsed": 36769,
                "key_press": 81,
                "condition": 1,
                "gend": "female",
                "trial_index": 26
            },
            {
                "rt": 709,
                "trial_type": "single-stim",
                "name": "Dmonte",
                "stimulus": "<p class='center-content'>Is this a smile?</p><p class='center-content'><img src='img/Dmonte_Reward.jpg' height='410' width='730'></img></p>",
                "expr": "reward",
                "internal_node_id": "0.0-1.0-26.0",
                "time_elapsed": 37481,
                "key_press": 81,
                "condition": 1,
                "gend": "male",
                "trial_index": 27
            },
            {
                "rt": 718,
                "trial_type": "single-stim",
                "name": "Anthony",
                "stimulus": "<p class='center-content'>Is this a smile?</p><p class='center-content'><img src='img/Anthony_Disgust.jpg' height='410' width='730'></img></p>",
                "expr": "disgust",
                "internal_node_id": "0.0-1.0-27.0",
                "time_elapsed": 38200,
                "key_press": 80,
                "condition": 1,
                "gend": "male",
                "trial_index": 28
            },
            {
                "rt": 893,
                "trial_type": "single-stim",
                "name": "Dmonte",
                "stimulus": "<p class='center-content'>Is this a smile?</p><p class='center-content'><img src='img/Dmonte_Dominance.jpg' height='410' width='730'></img></p>",
                "expr": "dominance",
                "internal_node_id": "0.0-1.0-28.0",
                "time_elapsed": 39097,
                "key_press": 81,
                "condition": 1,
                "gend": "male",
                "trial_index": 29
            },
            {
                "rt": 800,
                "trial_type": "single-stim",
                "name": "Joeseph",
                "stimulus": "<p class='center-content'>Is this a smile?</p><p class='center-content'><img src='img/Joeseph_Dominance.jpg' height='410' width='730'></img></p>",
                "expr": "dominance",
                "internal_node_id": "0.0-1.0-29.0",
                "time_elapsed": 39899,
                "key_press": 81,
                "condition": 1,
                "gend": "male",
                "trial_index": 30
            },
            {
                "rt": 757,
                "trial_type": "single-stim",
                "name": "Anna",
                "stimulus": "<p class='center-content'>Is this a smile?</p><p class='center-content'><img src='img/Anna_Dominance.jpg' height='410' width='730'></img></p>",
                "expr": "dominance",
                "internal_node_id": "0.0-1.0-30.0",
                "time_elapsed": 40658,
                "key_press": 81,
                "condition": 1,
                "gend": "female",
                "trial_index": 31
            },
            {
                "rt": 812,
                "trial_type": "single-stim",
                "name": "Jessica",
                "stimulus": "<p class='center-content'>Is this a smile?</p><p class='center-content'><img src='img/Jessica_Affiliation.jpg' height='410' width='730'></img></p>",
                "expr": "affiliation",
                "internal_node_id": "0.0-1.0-31.0",
                "time_elapsed": 41473,
                "key_press": 81,
                "condition": 1,
                "gend": "female",
                "trial_index": 32
            },
            {
                "rt": 797,
                "trial_type": "single-stim",
                "name": "Lulu",
                "stimulus": "<p class='center-content'>Is this a smile?</p><p class='center-content'><img src='img/Lulu.jpg' height='410' width='730'></img></p>",
                "expr": "neutral",
                "internal_node_id": "0.0-1.0-32.0",
                "time_elapsed": 42273,
                "key_press": 80,
                "condition": 1,
                "gend": "female",
                "trial_index": 33
            },
            {
                "rt": 805,
                "trial_type": "single-stim",
                "name": "Anthony",
                "stimulus": "<p class='center-content'>Is this a smile?</p><p class='center-content'><img src='img/Anthony_Reward.jpg' height='410' width='730'></img></p>",
                "expr": "reward",
                "internal_node_id": "0.0-1.0-33.0",
                "time_elapsed": 43080,
                "key_press": 81,
                "condition": 1,
                "gend": "male",
                "trial_index": 34
            },
            {
                "rt": 799,
                "trial_type": "single-stim",
                "name": "Mary",
                "stimulus": "<p class='center-content'>Is this a smile?</p><p class='center-content'><img src='img/Mary_Dominance.jpg' height='410' width='730'></img></p>",
                "expr": "dominance",
                "internal_node_id": "0.0-1.0-34.0",
                "time_elapsed": 43882,
                "key_press": 81,
                "condition": 1,
                "gend": "female",
                "trial_index": 35
            },
            {
                "rt": 724,
                "trial_type": "single-stim",
                "name": "Andrew",
                "stimulus": "<p class='center-content'>Is this a smile?</p><p class='center-content'><img src='img/Andrew_Dominance.jpg' height='410' width='730'></img></p>",
                "expr": "dominance",
                "internal_node_id": "0.0-1.0-35.0",
                "time_elapsed": 44609,
                "key_press": 81,
                "condition": 1,
                "gend": "male",
                "trial_index": 36
            },
            {
                "rt": 701,
                "trial_type": "single-stim",
                "name": "Zach",
                "stimulus": "<p class='center-content'>Is this a smile?</p><p class='center-content'><img src='img/Zach_Reward.jpg' height='410' width='730'></img></p>",
                "expr": "reward",
                "internal_node_id": "0.0-1.0-36.0",
                "time_elapsed": 45313,
                "key_press": 81,
                "condition": 1,
                "gend": "male",
                "trial_index": 37
            },
            {
                "rt": 703,
                "trial_type": "single-stim",
                "name": "Lulu",
                "stimulus": "<p class='center-content'>Is this a smile?</p><p class='center-content'><img src='img/Lulu_Disgust.jpg' height='410' width='730'></img></p>",
                "expr": "disgust",
                "internal_node_id": "0.0-1.0-37.0",
                "time_elapsed": 46017,
                "key_press": 80,
                "condition": 1,
                "gend": "female",
                "trial_index": 38
            },
            {
                "rt": 1207,
                "trial_type": "single-stim",
                "name": "Joeseph",
                "stimulus": "<p class='center-content'>Is this a smile?</p><p class='center-content'><img src='img/Joeseph_Reward.jpg' height='410' width='730'></img></p>",
                "expr": "reward",
                "internal_node_id": "0.0-1.0-38.0",
                "time_elapsed": 47225,
                "key_press": 81,
                "condition": 1,
                "gend": "male",
                "trial_index": 39
            },
            {
                "rt": 958,
                "trial_type": "single-stim",
                "name": "Ashley",
                "stimulus": "<p class='center-content'>Is this a smile?</p><p class='center-content'><img src='img/Ashley_Dominance.jpg' height='410' width='730'></img></p>",
                "expr": "dominance",
                "internal_node_id": "0.0-1.0-39.0",
                "time_elapsed": 48184,
                "key_press": 81,
                "condition": 1,
                "gend": "female",
                "trial_index": 40
            },
            {
                "rt": 1567,
                "trial_type": "single-stim",
                "name": "Naomi",
                "stimulus": "<p class='center-content'>Is this a smile?</p><p class='center-content'><img src='img/Naomi_DIsgust.jpg' height='410' width='730'></img></p>",
                "expr": "disgust",
                "internal_node_id": "0.0-1.0-40.0",
                "time_elapsed": 49753,
                "key_press": 80,
                "condition": 1,
                "gend": "female",
                "trial_index": 41
            },
            {
                "rt": 790,
                "trial_type": "single-stim",
                "name": "Andrew",
                "stimulus": "<p class='center-content'>Is this a smile?</p><p class='center-content'><img src='img/Andrew.jpg' height='410' width='730'></img></p>",
                "expr": "neutral",
                "internal_node_id": "0.0-1.0-41.0",
                "time_elapsed": 50545,
                "key_press": 80,
                "condition": 1,
                "gend": "male",
                "trial_index": 42
            },
            {
                "rt": 837,
                "trial_type": "single-stim",
                "name": "Jessica",
                "stimulus": "<p class='center-content'>Is this a smile?</p><p class='center-content'><img src='img/Jessica_Dominance.jpg' height='410' width='730'></img></p>",
                "expr": "dominance",
                "internal_node_id": "0.0-1.0-42.0",
                "time_elapsed": 51385,
                "key_press": 81,
                "condition": 1,
                "gend": "female",
                "trial_index": 43
            },
            {
                "rt": 749,
                "trial_type": "single-stim",
                "name": "Marcus",
                "stimulus": "<p class='center-content'>Is this a smile?</p><p class='center-content'><img src='img/Marcus_Dominance.jpg' height='410' width='730'></img></p>",
                "expr": "dominance",
                "internal_node_id": "0.0-1.0-43.0",
                "time_elapsed": 52137,
                "key_press": 81,
                "condition": 1,
                "gend": "male",
                "trial_index": 44
            },
            {
                "rt": 790,
                "trial_type": "single-stim",
                "name": "Zach",
                "stimulus": "<p class='center-content'>Is this a smile?</p><p class='center-content'><img src='img/Zach_Disgust.jpg' height='410' width='730'></img></p>",
                "expr": "disgust",
                "internal_node_id": "0.0-1.0-44.0",
                "time_elapsed": 52929,
                "key_press": 80,
                "condition": 1,
                "gend": "male",
                "trial_index": 45
            },
            {
                "rt": 767,
                "trial_type": "single-stim",
                "name": "Maurice",
                "stimulus": "<p class='center-content'>Is this a smile?</p><p class='center-content'><img src='img/Maurice_Dominance.jpg' height='410' width='730'></img></p>",
                "expr": "dominance",
                "internal_node_id": "0.0-1.0-45.0",
                "time_elapsed": 53697,
                "key_press": 80,
                "condition": 1,
                "gend": "male",
                "trial_index": 46
            },
            {
                "rt": 784,
                "trial_type": "single-stim",
                "name": "Andrew",
                "stimulus": "<p class='center-content'>Is this a smile?</p><p class='center-content'><img src='img/Andrew_Disgust.jpg' height='410' width='730'></img></p>",
                "expr": "disgust",
                "internal_node_id": "0.0-1.0-46.0",
                "time_elapsed": 54482,
                "key_press": 80,
                "condition": 1,
                "gend": "male",
                "trial_index": 47
            },
            {
                "rt": 1253,
                "trial_type": "single-stim",
                "name": "Joeseph",
                "stimulus": "<p class='center-content'>Is this a smile?</p><p class='center-content'><img src='img/Joeseph_Affiliation.jpg' height='410' width='730'></img></p>",
                "expr": "affiliation",
                "internal_node_id": "0.0-1.0-47.0",
                "time_elapsed": 55737,
                "key_press": 80,
                "condition": 1,
                "gend": "male",
                "trial_index": 48
            },
            {
                "rt": 1365,
                "trial_type": "single-stim",
                "name": "Naomi",
                "stimulus": "<p class='center-content'>Is this a smile?</p><p class='center-content'><img src='img/Naomi.jpg' height='410' width='730'></img></p>",
                "expr": "neutral",
                "internal_node_id": "0.0-1.0-48.0",
                "time_elapsed": 57104,
                "key_press": 81,
                "condition": 1,
                "gend": "female",
                "trial_index": 49
            },
            {
                "rt": 902,
                "trial_type": "single-stim",
                "name": "Andrew",
                "stimulus": "<p class='center-content'>Is this a smile?</p><p class='center-content'><img src='img/Andrew_Affiliation.jpg' height='410' width='730'></img></p>",
                "expr": "affiliation",
                "internal_node_id": "0.0-1.0-49.0",
                "time_elapsed": 58008,
                "key_press": 81,
                "condition": 1,
                "gend": "male",
                "trial_index": 50
            },
            {
                "rt": 959,
                "trial_type": "single-stim",
                "name": "Jourdan",
                "stimulus": "<p class='center-content'>Is this a smile?</p><p class='center-content'><img src='img/Jourdan.jpg' height='410' width='730'></img></p>",
                "expr": "neutral",
                "internal_node_id": "0.0-1.0-50.0",
                "time_elapsed": 58969,
                "key_press": 80,
                "condition": 1,
                "gend": "male",
                "trial_index": 51
            },
            {
                "rt": 694,
                "trial_type": "single-stim",
                "name": "Mary",
                "stimulus": "<p class='center-content'>Is this a smile?</p><p class='center-content'><img src='img/Mary_Reward.jpg' height='410' width='730'></img></p>",
                "expr": "reward",
                "internal_node_id": "0.0-1.0-51.0",
                "time_elapsed": 59665,
                "key_press": 81,
                "condition": 1,
                "gend": "female",
                "trial_index": 52
            },
            {
                "rt": 725,
                "trial_type": "single-stim",
                "name": "KJ",
                "stimulus": "<p class='center-content'>Is this a smile?</p><p class='center-content'><img src='img/KJ_Affiliation.jpg' height='410' width='730'></img></p>",
                "expr": "affiliation",
                "internal_node_id": "0.0-1.0-52.0",
                "time_elapsed": 60392,
                "key_press": 81,
                "condition": 1,
                "gend": "female",
                "trial_index": 53
            },
            {
                "rt": 694,
                "trial_type": "single-stim",
                "name": "Dmonte",
                "stimulus": "<p class='center-content'>Is this a smile?</p><p class='center-content'><img src='img/Dmonte_Affiliation.jpg' height='410' width='730'></img></p>",
                "expr": "affiliation",
                "internal_node_id": "0.0-1.0-53.0",
                "time_elapsed": 61088,
                "key_press": 81,
                "condition": 1,
                "gend": "male",
                "trial_index": 54
            },
            {
                "rt": 686,
                "trial_type": "single-stim",
                "name": "Lulu",
                "stimulus": "<p class='center-content'>Is this a smile?</p><p class='center-content'><img src='img/Lulu_Reward.jpg' height='410' width='730'></img></p>",
                "expr": "reward",
                "internal_node_id": "0.0-1.0-54.0",
                "time_elapsed": 61777,
                "key_press": 81,
                "condition": 1,
                "gend": "female",
                "trial_index": 55
            },
            {
                "rt": 749,
                "trial_type": "single-stim",
                "name": "Ashley",
                "stimulus": "<p class='center-content'>Is this a smile?</p><p class='center-content'><img src='img/Ashley_Disgust.jpg' height='410' width='730'></img></p>",
                "expr": "disgust",
                "internal_node_id": "0.0-1.0-55.0",
                "time_elapsed": 62528,
                "key_press": 80,
                "condition": 1,
                "gend": "female",
                "trial_index": 56
            },
            {
                "rt": 766,
                "trial_type": "single-stim",
                "name": "Joeseph",
                "stimulus": "<p class='center-content'>Is this a smile?</p><p class='center-content'><img src='img/Joeseph_Disgust.jpg' height='410' width='730'></img></p>",
                "expr": "disgust",
                "internal_node_id": "0.0-1.0-56.0",
                "time_elapsed": 63296,
                "key_press": 80,
                "condition": 1,
                "gend": "male",
                "trial_index": 57
            },
            {
                "rt": 990,
                "trial_type": "single-stim",
                "name": "Maurice",
                "stimulus": "<p class='center-content'>Is this a smile?</p><p class='center-content'><img src='img/Maurice.jpg' height='410' width='730'></img></p>",
                "expr": "neutral",
                "internal_node_id": "0.0-1.0-57.0",
                "time_elapsed": 64288,
                "key_press": 80,
                "condition": 1,
                "gend": "male",
                "trial_index": 58
            },
            {
                "rt": 728,
                "trial_type": "single-stim",
                "name": "Anna",
                "stimulus": "<p class='center-content'>Is this a smile?</p><p class='center-content'><img src='img/Anna.jpg' height='410' width='730'></img></p>",
                "expr": "neutral",
                "internal_node_id": "0.0-1.0-58.0",
                "time_elapsed": 65019,
                "key_press": 80,
                "condition": 1,
                "gend": "female",
                "trial_index": 59
            },
            {
                "rt": 861,
                "trial_type": "single-stim",
                "name": "KJ",
                "stimulus": "<p class='center-content'>Is this a smile?</p><p class='center-content'><img src='img/KJ_Dominance.jpg' height='410' width='730'></img></p>",
                "expr": "dominance",
                "internal_node_id": "0.0-1.0-59.0",
                "time_elapsed": 65881,
                "key_press": 81,
                "condition": 1,
                "gend": "female",
                "trial_index": 60
            },
            {
                "rt": 829,
                "trial_type": "single-stim",
                "name": "Jourdan",
                "stimulus": "<p class='center-content'>Is this a smile?</p><p class='center-content'><img src='img/Jourdan_Affiliation.jpg' height='410' width='730'></img></p>",
                "expr": "affiliation",
                "internal_node_id": "0.0-1.0-60.0",
                "time_elapsed": 66712,
                "key_press": 81,
                "condition": 1,
                "gend": "male",
                "trial_index": 61
            },
            {
                "rt": 726,
                "trial_type": "single-stim",
                "name": "Marcus",
                "stimulus": "<p class='center-content'>Is this a smile?</p><p class='center-content'><img src='img/Marcus_Reward.jpg' height='410' width='730'></img></p>",
                "expr": "reward",
                "internal_node_id": "0.0-1.0-61.0",
                "time_elapsed": 67441,
                "key_press": 81,
                "condition": 1,
                "gend": "male",
                "trial_index": 62
            },
            {
                "rt": 702,
                "trial_type": "single-stim",
                "name": "Ashley",
                "stimulus": "<p class='center-content'>Is this a smile?</p><p class='center-content'><img src='img/Ashley_Affiliation.jpg' height='410' width='730'></img></p>",
                "expr": "affiliation",
                "internal_node_id": "0.0-1.0-62.0",
                "time_elapsed": 68145,
                "key_press": 81,
                "condition": 1,
                "gend": "female",
                "trial_index": 63
            },
            {
                "rt": 694,
                "trial_type": "single-stim",
                "name": "KJ",
                "stimulus": "<p class='center-content'>Is this a smile?</p><p class='center-content'><img src='img/KJ_Reward.jpg' height='410' width='730'></img></p>",
                "expr": "reward",
                "internal_node_id": "0.0-1.0-63.0",
                "time_elapsed": 68842,
                "key_press": 81,
                "condition": 1,
                "gend": "female",
                "trial_index": 64
            },
            {
                "rt": 669,
                "trial_type": "single-stim",
                "name": "Jessica",
                "stimulus": "<p class='center-content'>Is this a smile?</p><p class='center-content'><img src='img/Jessica_Reward.jpg' height='410' width='730'></img></p>",
                "expr": "reward",
                "internal_node_id": "0.0-1.0-64.0",
                "time_elapsed": 69513,
                "key_press": 81,
                "condition": 1,
                "gend": "female",
                "trial_index": 65
            },
            {
                "rt": 748,
                "trial_type": "single-stim",
                "name": "Joeseph",
                "stimulus": "<p class='center-content'>Is this a smile?</p><p class='center-content'><img src='img/Joeseph.jpg' height='410' width='730'></img></p>",
                "expr": "neutral",
                "internal_node_id": "0.0-1.0-65.0",
                "time_elapsed": 70265,
                "key_press": 80,
                "condition": 1,
                "gend": "male",
                "trial_index": 66
            },
            {
                "rt": 725,
                "trial_type": "single-stim",
                "name": "Anna",
                "stimulus": "<p class='center-content'>Is this a smile?</p><p class='center-content'><img src='img/Anna_Reward.jpg' height='410' width='730'></img></p>",
                "expr": "reward",
                "internal_node_id": "0.0-1.0-66.0",
                "time_elapsed": 70994,
                "key_press": 81,
                "condition": 1,
                "gend": "female",
                "trial_index": 67
            },
            {
                "rt": 1429,
                "trial_type": "single-stim",
                "name": "Marcus",
                "stimulus": "<p class='center-content'>Is this a smile?</p><p class='center-content'><img src='img/Marcus_Affiliation.jpg' height='410' width='730'></img></p>",
                "expr": "affiliation",
                "internal_node_id": "0.0-1.0-67.0",
                "time_elapsed": 72426,
                "key_press": 80,
                "condition": 1,
                "gend": "male",
                "trial_index": 68
            },
            {
                "rt": 1725,
                "trial_type": "single-stim",
                "name": "Anthony",
                "stimulus": "<p class='center-content'>Is this a smile?</p><p class='center-content'><img src='img/Anthony_Affiliation.jpg' height='410' width='730'></img></p>",
                "expr": "affiliation",
                "internal_node_id": "0.0-1.0-68.0",
                "time_elapsed": 74154,
                "key_press": 81,
                "condition": 1,
                "gend": "male",
                "trial_index": 69
            },
            {
                "rt": 758,
                "trial_type": "single-stim",
                "name": "Naomi",
                "stimulus": "<p class='center-content'>Is this a smile?</p><p class='center-content'><img src='img/Naomi_Dominance.jpg' height='410' width='730'></img></p>",
                "expr": "dominance",
                "internal_node_id": "0.0-1.0-69.0",
                "time_elapsed": 74914,
                "key_press": 81,
                "condition": 1,
                "gend": "female",
                "trial_index": 70
            },
            {
                "rt": 1403,
                "trial_type": "single-stim",
                "name": "Maurice",
                "stimulus": "<p class='center-content'>Is this a smile?</p><p class='center-content'><img src='img/Maurice_Affiliation.jpg' height='410' width='730'></img></p>",
                "expr": "affiliation",
                "internal_node_id": "0.0-1.0-70.0",
                "time_elapsed": 76319,
                "key_press": 80,
                "condition": 1,
                "gend": "male",
                "trial_index": 71
            },
            {
                "rt": 727,
                "trial_type": "single-stim",
                "name": "Maurice",
                "stimulus": "<p class='center-content'>Is this a smile?</p><p class='center-content'><img src='img/Maurice_Reward.jpg' height='410' width='730'></img></p>",
                "expr": "reward",
                "internal_node_id": "0.0-1.0-71.0",
                "time_elapsed": 77050,
                "key_press": 81,
                "condition": 1,
                "gend": "male",
                "trial_index": 72
            },
            {
                "rt": 797,
                "trial_type": "single-stim",
                "name": "Zach",
                "stimulus": "<p class='center-content'>Is this a smile?</p><p class='center-content'><img src='img/Zach.jpg' height='410' width='730'></img></p>",
                "expr": "neutral",
                "internal_node_id": "0.0-1.0-72.0",
                "time_elapsed": 77850,
                "key_press": 80,
                "condition": 1,
                "gend": "male",
                "trial_index": 73
            },
            {
                "rt": 709,
                "trial_type": "single-stim",
                "name": "Maurice",
                "stimulus": "<p class='center-content'>Is this a smile?</p><p class='center-content'><img src='img/Maurice_Disgust.jpg' height='410' width='730'></img></p>",
                "expr": "disgust",
                "internal_node_id": "0.0-1.0-73.0",
                "time_elapsed": 78562,
                "key_press": 80,
                "condition": 1,
                "gend": "male",
                "trial_index": 74
            },
            {
                "rt": 741,
                "trial_type": "single-stim",
                "name": "Zach",
                "stimulus": "<p class='center-content'>Is this a smile?</p><p class='center-content'><img src='img/Zach_Dominance.jpg' height='410' width='730'></img></p>",
                "expr": "dominance",
                "internal_node_id": "0.0-1.0-74.0",
                "time_elapsed": 79306,
                "key_press": 80,
                "condition": 1,
                "gend": "male",
                "trial_index": 75
            },
            {
                "rt": 12319,
                "trial_type": "survey-multi-choice",
                "responses": "{\"Q0\":\"Female\",\"Q1\":\"White/Caucasian/European American\",\"Q2\":\"Right\",\"Q3\":\"Q\",\"Q4\":\"P\"}",
                "internal_node_id": "0.0-2.0",
                "time_elapsed": 91652,
                "trial_index": 76
            },
            {
                "rt": 4543,
                "trial_type": "survey-text",
                "responses": "{\"Q0\":\"No\"}",
                "internal_node_id": "0.0-3.0",
                "time_elapsed": 97198,
                "trial_index": 77
            },
            {
                "rt": 3213,
                "trial_type": "text",
                "internal_node_id": "0.0-4.0",
                "time_elapsed": 101415,
                "key_press": 32,
                "trial_index": 78
            }
        ]
    },
    "AcceptTime": "2017-11-29T18:00:15Z",
    "HITId": "30F94FBDNRK94G1JP20DWT8BINZBT7",
    "Assignment": "",
    "AssignmentStatus": "Approved",
    "SubmitTime": "2017-11-29T18:05:23Z"
}