{
    "ApprovalTime": "2017-11-29T18:13:59Z",
    "AutoApprovalTime": "2017-11-29T18:13:28Z",
    "AssignmentId": "xxxx",
    "WorkerId": "subject1",
    "answers": {
        "data": [
            {
                "rt": 1203,
                "trial_type": "text",
                "internal_node_id": "0.0-0.0",
                "time_elapsed": 1219,
                "key_press": 17,
                "trial_index": 0
            },
            {
                "rt": 1796,
                "trial_type": "single-stim",
                "name": "Lulu",
                "stimulus": "<p class='center-content'>Is this a smile?</p><p class='center-content'><img src='img/Lulu_Dominance.jpg' height='410' width='730'></img></p>",
                "expr": "dominance",
                "internal_node_id": "0.0-1.0-0.0",
                "time_elapsed": 5064,
                "key_press": 80,
                "condition": 2,
                "gend": "female",
                "trial_index": 1
            },
            {
                "rt": 906,
                "trial_type": "single-stim",
                "name": "Dmonte",
                "stimulus": "<p class='center-content'>Is this a smile?</p><p class='center-content'><img src='img/Dmonte_Dominance.jpg' height='410' width='730'></img></p>",
                "expr": "dominance",
                "internal_node_id": "0.0-1.0-1.0",
                "time_elapsed": 5970,
                "key_press": 80,
                "condition": 2,
                "gend": "male",
                "trial_index": 2
            },
            {
                "rt": 444,
                "trial_type": "single-stim",
                "name": "Anna",
                "stimulus": "<p class='center-content'>Is this a smile?</p><p class='center-content'><img src='img/Anna_Dominance.jpg' height='410' width='730'></img></p>",
                "expr": "dominance",
                "internal_node_id": "0.0-1.0-2.0",
                "time_elapsed": 6414,
                "key_press": 80,
                "condition": 2,
                "gend": "female",
                "trial_index": 3
            },
            {
                "rt": 629,
                "trial_type": "single-stim",
                "name": "Anthony",
                "stimulus": "<p class='center-content'>Is this a smile?</p><p class='center-content'><img src='img/Anthony_Disgust.jpg' height='410' width='730'></img></p>",
                "expr": "disgust",
                "internal_node_id": "0.0-1.0-3.0",
                "time_elapsed": 7043,
                "key_press": 81,
                "condition": 2,
                "gend": "male",
                "trial_index": 4
            },
            {
                "rt": 567,
                "trial_type": "single-stim",
                "name": "Lulu",
                "stimulus": "<p class='center-content'>Is this a smile?</p><p class='center-content'><img src='img/Lulu_Disgust.jpg' height='410' width='730'></img></p>",
                "expr": "disgust",
                "internal_node_id": "0.0-1.0-4.0",
                "time_elapsed": 7610,
                "key_press": 81,
                "condition": 2,
                "gend": "female",
                "trial_index": 5
            },
            {
                "rt": 611,
                "trial_type": "single-stim",
                "name": "Dmonte",
                "stimulus": "<p class='center-content'>Is this a smile?</p><p class='center-content'><img src='img/Dmonte_Disgust.jpg' height='410' width='730'></img></p>",
                "expr": "disgust",
                "internal_node_id": "0.0-1.0-5.0",
                "time_elapsed": 8221,
                "key_press": 81,
                "condition": 2,
                "gend": "male",
                "trial_index": 6
            },
            {
                "rt": 846,
                "trial_type": "single-stim",
                "name": "Lulu",
                "stimulus": "<p class='center-content'>Is this a smile?</p><p class='center-content'><img src='img/Lulu.jpg' height='410' width='730'></img></p>",
                "expr": "neutral",
                "internal_node_id": "0.0-1.0-6.0",
                "time_elapsed": 9067,
                "key_press": 81,
                "condition": 2,
                "gend": "female",
                "trial_index": 7
            },
            {
                "rt": 601,
                "trial_type": "single-stim",
                "name": "Marcus",
                "stimulus": "<p class='center-content'>Is this a smile?</p><p class='center-content'><img src='img/Marcus_Affiliation.jpg' height='410' width='730'></img></p>",
                "expr": "affiliation",
                "internal_node_id": "0.0-1.0-7.0",
                "time_elapsed": 9668,
                "key_press": 81,
                "condition": 2,
                "gend": "male",
                "trial_index": 8
            },
            {
                "rt": 527,
                "trial_type": "single-stim",
                "name": "Anthony",
                "stimulus": "<p class='center-content'>Is this a smile?</p><p class='center-content'><img src='img/Anthony_Reward.jpg' height='410' width='730'></img></p>",
                "expr": "reward",
                "internal_node_id": "0.0-1.0-8.0",
                "time_elapsed": 10195,
                "key_press": 80,
                "condition": 2,
                "gend": "male",
                "trial_index": 9
            },
            {
                "rt": 700,
                "trial_type": "single-stim",
                "name": "Jourdan",
                "stimulus": "<p class='center-content'>Is this a smile?</p><p class='center-content'><img src='img/Jourdan_Dominance.jpg' height='410' width='730'></img></p>",
                "expr": "dominance",
                "internal_node_id": "0.0-1.0-9.0",
                "time_elapsed": 10895,
                "key_press": 80,
                "condition": 2,
                "gend": "male",
                "trial_index": 10
            },
            {
                "rt": 510,
                "trial_type": "single-stim",
                "name": "Joeseph",
                "stimulus": "<p class='center-content'>Is this a smile?</p><p class='center-content'><img src='img/Joeseph_Reward.jpg' height='410' width='730'></img></p>",
                "expr": "reward",
                "internal_node_id": "0.0-1.0-10.0",
                "time_elapsed": 11405,
                "key_press": 80,
                "condition": 2,
                "gend": "male",
                "trial_index": 11
            },
            {
                "rt": 587,
                "trial_type": "single-stim",
                "name": "Ashley",
                "stimulus": "<p class='center-content'>Is this a smile?</p><p class='center-content'><img src='img/Ashley_Disgust.jpg' height='410' width='730'></img></p>",
                "expr": "disgust",
                "internal_node_id": "0.0-1.0-11.0",
                "time_elapsed": 11992,
                "key_press": 81,
                "condition": 2,
                "gend": "female",
                "trial_index": 12
            },
            {
                "rt": 510,
                "trial_type": "single-stim",
                "name": "Mary",
                "stimulus": "<p class='center-content'>Is this a smile?</p><p class='center-content'><img src='img/Mary.jpg' height='410' width='730'></img></p>",
                "expr": "neutral",
                "internal_node_id": "0.0-1.0-12.0",
                "time_elapsed": 12518,
                "key_press": 81,
                "condition": 2,
                "gend": "female",
                "trial_index": 13
            },
            {
                "rt": 634,
                "trial_type": "single-stim",
                "name": "Marcus",
                "stimulus": "<p class='center-content'>Is this a smile?</p><p class='center-content'><img src='img/Marcus_Dominance.jpg' height='410' width='730'></img></p>",
                "expr": "dominance",
                "internal_node_id": "0.0-1.0-13.0",
                "time_elapsed": 13152,
                "key_press": 80,
                "condition": 2,
                "gend": "male",
                "trial_index": 14
            },
            {
                "rt": 642,
                "trial_type": "single-stim",
                "name": "Joeseph",
                "stimulus": "<p class='center-content'>Is this a smile?</p><p class='center-content'><img src='img/Joeseph_Affiliation.jpg' height='410' width='730'></img></p>",
                "expr": "affiliation",
                "internal_node_id": "0.0-1.0-14.0",
                "time_elapsed": 13827,
                "key_press": 80,
                "condition": 2,
                "gend": "male",
                "trial_index": 15
            },
            {
                "rt": 1020,
                "trial_type": "single-stim",
                "name": "Jourdan",
                "stimulus": "<p class='center-content'>Is this a smile?</p><p class='center-content'><img src='img/Jourdan.jpg' height='410' width='730'></img></p>",
                "expr": "neutral",
                "internal_node_id": "0.0-1.0-15.0",
                "time_elapsed": 14881,
                "key_press": 81,
                "condition": 2,
                "gend": "male",
                "trial_index": 16
            },
            {
                "rt": 847,
                "trial_type": "single-stim",
                "name": "Anthony",
                "stimulus": "<p class='center-content'>Is this a smile?</p><p class='center-content'><img src='img/Anthony_Affiliation.jpg' height='410' width='730'></img></p>",
                "expr": "affiliation",
                "internal_node_id": "0.0-1.0-16.0",
                "time_elapsed": 15730,
                "key_press": 80,
                "condition": 2,
                "gend": "male",
                "trial_index": 17
            },
            {
                "rt": 848,
                "trial_type": "single-stim",
                "name": "Marcus",
                "stimulus": "<p class='center-content'>Is this a smile?</p><p class='center-content'><img src='img/Marcus.jpg' height='410' width='730'></img></p>",
                "expr": "neutral",
                "internal_node_id": "0.0-1.0-17.0",
                "time_elapsed": 16578,
                "key_press": 80,
                "condition": 2,
                "gend": "male",
                "trial_index": 18
            },
            {
                "rt": 509,
                "trial_type": "single-stim",
                "name": "Marcus",
                "stimulus": "<p class='center-content'>Is this a smile?</p><p class='center-content'><img src='img/Marcus_Reward.jpg' height='410' width='730'></img></p>",
                "expr": "reward",
                "internal_node_id": "0.0-1.0-18.0",
                "time_elapsed": 17087,
                "key_press": 80,
                "condition": 2,
                "gend": "male",
                "trial_index": 19
            },
            {
                "rt": 481,
                "trial_type": "single-stim",
                "name": "Lulu",
                "stimulus": "<p class='center-content'>Is this a smile?</p><p class='center-content'><img src='img/Lulu_Reward.jpg' height='410' width='730'></img></p>",
                "expr": "reward",
                "internal_node_id": "0.0-1.0-19.0",
                "time_elapsed": 17599,
                "key_press": 80,
                "condition": 2,
                "gend": "female",
                "trial_index": 20
            },
            {
                "rt": 838,
                "trial_type": "single-stim",
                "name": "Zach",
                "stimulus": "<p class='center-content'>Is this a smile?</p><p class='center-content'><img src='img/Zach_Disgust.jpg' height='410' width='730'></img></p>",
                "expr": "disgust",
                "internal_node_id": "0.0-1.0-20.0",
                "time_elapsed": 18437,
                "key_press": 81,
                "condition": 2,
                "gend": "male",
                "trial_index": 21
            },
            {
                "rt": 638,
                "trial_type": "single-stim",
                "name": "KJ",
                "stimulus": "<p class='center-content'>Is this a smile?</p><p class='center-content'><img src='img/KJ.jpg' height='410' width='730'></img></p>",
                "expr": "neutral",
                "internal_node_id": "0.0-1.0-21.0",
                "time_elapsed": 19075,
                "key_press": 81,
                "condition": 2,
                "gend": "female",
                "trial_index": 22
            },
            {
                "rt": 567,
                "trial_type": "single-stim",
                "name": "Jourdan",
                "stimulus": "<p class='center-content'>Is this a smile?</p><p class='center-content'><img src='img/Jourdan_Affiliation.jpg' height='410' width='730'></img></p>",
                "expr": "affiliation",
                "internal_node_id": "0.0-1.0-22.0",
                "time_elapsed": 19674,
                "key_press": 80,
                "condition": 2,
                "gend": "male",
                "trial_index": 23
            },
            {
                "rt": 499,
                "trial_type": "single-stim",
                "name": "Jessica",
                "stimulus": "<p class='center-content'>Is this a smile?</p><p class='center-content'><img src='img/Jessica_Affiliation.jpg' height='410' width='730'></img></p>",
                "expr": "affiliation",
                "internal_node_id": "0.0-1.0-23.0",
                "time_elapsed": 20173,
                "key_press": 80,
                "condition": 2,
                "gend": "female",
                "trial_index": 24
            },
            {
                "rt": 511,
                "trial_type": "single-stim",
                "name": "Anthony",
                "stimulus": "<p class='center-content'>Is this a smile?</p><p class='center-content'><img src='img/Anthony_Dominance.jpg' height='410' width='730'></img></p>",
                "expr": "dominance",
                "internal_node_id": "0.0-1.0-24.0",
                "time_elapsed": 20699,
                "key_press": 80,
                "condition": 2,
                "gend": "male",
                "trial_index": 25
            },
            {
                "rt": 478,
                "trial_type": "single-stim",
                "name": "Dmonte",
                "stimulus": "<p class='center-content'>Is this a smile?</p><p class='center-content'><img src='img/Dmonte_Affiliation.jpg' height='410' width='730'></img></p>",
                "expr": "affiliation",
                "internal_node_id": "0.0-1.0-25.0",
                "time_elapsed": 21177,
                "key_press": 80,
                "condition": 2,
                "gend": "male",
                "trial_index": 26
            },
            {
                "rt": 508,
                "trial_type": "single-stim",
                "name": "Zach",
                "stimulus": "<p class='center-content'>Is this a smile?</p><p class='center-content'><img src='img/Zach_Reward.jpg' height='410' width='730'></img></p>",
                "expr": "reward",
                "internal_node_id": "0.0-1.0-26.0",
                "time_elapsed": 21685,
                "key_press": 80,
                "condition": 2,
                "gend": "male",
                "trial_index": 27
            },
            {
                "rt": 492,
                "trial_type": "single-stim",
                "name": "KJ",
                "stimulus": "<p class='center-content'>Is this a smile?</p><p class='center-content'><img src='img/KJ_Dominance.jpg' height='410' width='730'></img></p>",
                "expr": "dominance",
                "internal_node_id": "0.0-1.0-27.0",
                "time_elapsed": 22177,
                "key_press": 80,
                "condition": 2,
                "gend": "female",
                "trial_index": 28
            },
            {
                "rt": 1633,
                "trial_type": "single-stim",
                "name": "Lulu",
                "stimulus": "<p class='center-content'>Is this a smile?</p><p class='center-content'><img src='img/Lulu_Affiliation.jpg' height='410' width='730'></img></p>",
                "expr": "affiliation",
                "internal_node_id": "0.0-1.0-28.0",
                "time_elapsed": 23810,
                "key_press": 81,
                "condition": 2,
                "gend": "female",
                "trial_index": 29
            },
            {
                "rt": 610,
                "trial_type": "single-stim",
                "name": "Maurice",
                "stimulus": "<p class='center-content'>Is this a smile?</p><p class='center-content'><img src='img/Maurice_Reward.jpg' height='410' width='730'></img></p>",
                "expr": "reward",
                "internal_node_id": "0.0-1.0-29.0",
                "time_elapsed": 24420,
                "key_press": 80,
                "condition": 2,
                "gend": "male",
                "trial_index": 30
            },
            {
                "rt": 1238,
                "trial_type": "single-stim",
                "name": "Naomi",
                "stimulus": "<p class='center-content'>Is this a smile?</p><p class='center-content'><img src='img/Naomi_DIsgust.jpg' height='410' width='730'></img></p>",
                "expr": "disgust",
                "internal_node_id": "0.0-1.0-30.0",
                "time_elapsed": 25658,
                "key_press": 81,
                "condition": 2,
                "gend": "female",
                "trial_index": 31
            },
            {
                "rt": 735,
                "trial_type": "single-stim",
                "name": "Maurice",
                "stimulus": "<p class='center-content'>Is this a smile?</p><p class='center-content'><img src='img/Maurice_Dominance.jpg' height='410' width='730'></img></p>",
                "expr": "dominance",
                "internal_node_id": "0.0-1.0-31.0",
                "time_elapsed": 26425,
                "key_press": 80,
                "condition": 2,
                "gend": "male",
                "trial_index": 32
            },
            {
                "rt": 976,
                "trial_type": "single-stim",
                "name": "Zach",
                "stimulus": "<p class='center-content'>Is this a smile?</p><p class='center-content'><img src='img/Zach.jpg' height='410' width='730'></img></p>",
                "expr": "neutral",
                "internal_node_id": "0.0-1.0-32.0",
                "time_elapsed": 27433,
                "key_press": 81,
                "condition": 2,
                "gend": "male",
                "trial_index": 33
            },
            {
                "rt": 709,
                "trial_type": "single-stim",
                "name": "Jourdan",
                "stimulus": "<p class='center-content'>Is this a smile?</p><p class='center-content'><img src='img/Jourdan_Disgust.jpg' height='410' width='730'></img></p>",
                "expr": "disgust",
                "internal_node_id": "0.0-1.0-33.0",
                "time_elapsed": 28142,
                "key_press": 81,
                "condition": 2,
                "gend": "male",
                "trial_index": 34
            },
            {
                "rt": 791,
                "trial_type": "single-stim",
                "name": "Naomi",
                "stimulus": "<p class='center-content'>Is this a smile?</p><p class='center-content'><img src='img/Naomi_Affiliation.jpg' height='410' width='730'></img></p>",
                "expr": "affiliation",
                "internal_node_id": "0.0-1.0-34.0",
                "time_elapsed": 28933,
                "key_press": 80,
                "condition": 2,
                "gend": "female",
                "trial_index": 35
            },
            {
                "rt": 525,
                "trial_type": "single-stim",
                "name": "KJ",
                "stimulus": "<p class='center-content'>Is this a smile?</p><p class='center-content'><img src='img/KJ_Disgust.jpg' height='410' width='730'></img></p>",
                "expr": "disgust",
                "internal_node_id": "0.0-1.0-35.0",
                "time_elapsed": 29458,
                "key_press": 80,
                "condition": 2,
                "gend": "female",
                "trial_index": 36
            },
            {
                "rt": 1268,
                "trial_type": "single-stim",
                "name": "Ashley",
                "stimulus": "<p class='center-content'>Is this a smile?</p><p class='center-content'><img src='img/Ashley.jpg' height='410' width='730'></img></p>",
                "expr": "neutral",
                "internal_node_id": "0.0-1.0-36.0",
                "time_elapsed": 30726,
                "key_press": 81,
                "condition": 2,
                "gend": "female",
                "trial_index": 37
            },
            {
                "rt": 778,
                "trial_type": "single-stim",
                "name": "Maurice",
                "stimulus": "<p class='center-content'>Is this a smile?</p><p class='center-content'><img src='img/Maurice_Disgust.jpg' height='410' width='730'></img></p>",
                "expr": "disgust",
                "internal_node_id": "0.0-1.0-37.0",
                "time_elapsed": 31504,
                "key_press": 81,
                "condition": 2,
                "gend": "male",
                "trial_index": 38
            },
            {
                "rt": 627,
                "trial_type": "single-stim",
                "name": "Anna",
                "stimulus": "<p class='center-content'>Is this a smile?</p><p class='center-content'><img src='img/Anna_Reward.jpg' height='410' width='730'></img></p>",
                "expr": "reward",
                "internal_node_id": "0.0-1.0-38.0",
                "time_elapsed": 32131,
                "key_press": 80,
                "condition": 2,
                "gend": "female",
                "trial_index": 39
            },
            {
                "rt": 783,
                "trial_type": "single-stim",
                "name": "Jessica",
                "stimulus": "<p class='center-content'>Is this a smile?</p><p class='center-content'><img src='img/Jessica_Disgust.jpg' height='410' width='730'></img></p>",
                "expr": "disgust",
                "internal_node_id": "0.0-1.0-39.0",
                "time_elapsed": 32914,
                "key_press": 81,
                "condition": 2,
                "gend": "female",
                "trial_index": 40
            },
            {
                "rt": 628,
                "trial_type": "single-stim",
                "name": "Jessica",
                "stimulus": "<p class='center-content'>Is this a smile?</p><p class='center-content'><img src='img/Jessica_Reward.jpg' height='410' width='730'></img></p>",
                "expr": "reward",
                "internal_node_id": "0.0-1.0-40.0",
                "time_elapsed": 33542,
                "key_press": 80,
                "condition": 2,
                "gend": "female",
                "trial_index": 41
            },
            {
                "rt": 873,
                "trial_type": "single-stim",
                "name": "Naomi",
                "stimulus": "<p class='center-content'>Is this a smile?</p><p class='center-content'><img src='img/Naomi_Reward.jpg' height='410' width='730'></img></p>",
                "expr": "reward",
                "internal_node_id": "0.0-1.0-41.0",
                "time_elapsed": 34415,
                "key_press": 80,
                "condition": 2,
                "gend": "female",
                "trial_index": 42
            },
            {
                "rt": 810,
                "trial_type": "single-stim",
                "name": "Joeseph",
                "stimulus": "<p class='center-content'>Is this a smile?</p><p class='center-content'><img src='img/Joeseph_Dominance.jpg' height='410' width='730'></img></p>",
                "expr": "dominance",
                "internal_node_id": "0.0-1.0-42.0",
                "time_elapsed": 35225,
                "key_press": 80,
                "condition": 2,
                "gend": "male",
                "trial_index": 43
            },
            {
                "rt": 507,
                "trial_type": "single-stim",
                "name": "Jourdan",
                "stimulus": "<p class='center-content'>Is this a smile?</p><p class='center-content'><img src='img/Jourdan_Reward.jpg' height='410' width='730'></img></p>",
                "expr": "reward",
                "internal_node_id": "0.0-1.0-43.0",
                "time_elapsed": 35732,
                "key_press": 80,
                "condition": 2,
                "gend": "male",
                "trial_index": 44
            },
            {
                "rt": 613,
                "trial_type": "single-stim",
                "name": "Maurice",
                "stimulus": "<p class='center-content'>Is this a smile?</p><p class='center-content'><img src='img/Maurice_Affiliation.jpg' height='410' width='730'></img></p>",
                "expr": "affiliation",
                "internal_node_id": "0.0-1.0-44.0",
                "time_elapsed": 36379,
                "key_press": 80,
                "condition": 2,
                "gend": "male",
                "trial_index": 45
            },
            {
                "rt": 60,
                "trial_type": "single-stim",
                "name": "KJ",
                "stimulus": "<p class='center-content'>Is this a smile?</p><p class='center-content'><img src='img/KJ_Affiliation.jpg' height='410' width='730'></img></p>",
                "expr": "affiliation",
                "internal_node_id": "0.0-1.0-45.0",
                "time_elapsed": 36440,
                "key_press": 80,
                "condition": 2,
                "gend": "female",
                "trial_index": 46
            },
            {
                "rt": 727,
                "trial_type": "single-stim",
                "name": "Naomi",
                "stimulus": "<p class='center-content'>Is this a smile?</p><p class='center-content'><img src='img/Naomi_Dominance.jpg' height='410' width='730'></img></p>",
                "expr": "dominance",
                "internal_node_id": "0.0-1.0-46.0",
                "time_elapsed": 37168,
                "key_press": 80,
                "condition": 2,
                "gend": "female",
                "trial_index": 47
            },
            {
                "rt": 769,
                "trial_type": "single-stim",
                "name": "Andrew",
                "stimulus": "<p class='center-content'>Is this a smile?</p><p class='center-content'><img src='img/Andrew.jpg' height='410' width='730'></img></p>",
                "expr": "neutral",
                "internal_node_id": "0.0-1.0-47.0",
                "time_elapsed": 37937,
                "key_press": 81,
                "condition": 2,
                "gend": "male",
                "trial_index": 48
            },
            {
                "rt": 573,
                "trial_type": "single-stim",
                "name": "Anthony",
                "stimulus": "<p class='center-content'>Is this a smile?</p><p class='center-content'><img src='img/Anthony.jpg' height='410' width='730'></img></p>",
                "expr": "neutral",
                "internal_node_id": "0.0-1.0-48.0",
                "time_elapsed": 38526,
                "key_press": 81,
                "condition": 2,
                "gend": "male",
                "trial_index": 49
            },
            {
                "rt": 624,
                "trial_type": "single-stim",
                "name": "Andrew",
                "stimulus": "<p class='center-content'>Is this a smile?</p><p class='center-content'><img src='img/Andrew_Reward.jpg' height='410' width='730'></img></p>",
                "expr": "reward",
                "internal_node_id": "0.0-1.0-49.0",
                "time_elapsed": 39150,
                "key_press": 80,
                "condition": 2,
                "gend": "male",
                "trial_index": 50
            },
            {
                "rt": 523,
                "trial_type": "single-stim",
                "name": "Dmonte",
                "stimulus": "<p class='center-content'>Is this a smile?</p><p class='center-content'><img src='img/Dmonte_Reward.jpg' height='410' width='730'></img></p>",
                "expr": "reward",
                "internal_node_id": "0.0-1.0-50.0",
                "time_elapsed": 39673,
                "key_press": 80,
                "condition": 2,
                "gend": "male",
                "trial_index": 51
            },
            {
                "rt": 537,
                "trial_type": "single-stim",
                "name": "Ashley",
                "stimulus": "<p class='center-content'>Is this a smile?</p><p class='center-content'><img src='img/Ashley_Reward.jpg' height='410' width='730'></img></p>",
                "expr": "reward",
                "internal_node_id": "0.0-1.0-51.0",
                "time_elapsed": 40210,
                "key_press": 80,
                "condition": 2,
                "gend": "female",
                "trial_index": 52
            },
            {
                "rt": 702,
                "trial_type": "single-stim",
                "name": "Ashley",
                "stimulus": "<p class='center-content'>Is this a smile?</p><p class='center-content'><img src='img/Ashley_Dominance.jpg' height='410' width='730'></img></p>",
                "expr": "dominance",
                "internal_node_id": "0.0-1.0-52.0",
                "time_elapsed": 40912,
                "key_press": 80,
                "condition": 2,
                "gend": "female",
                "trial_index": 53
            },
            {
                "rt": 780,
                "trial_type": "single-stim",
                "name": "Anna",
                "stimulus": "<p class='center-content'>Is this a smile?</p><p class='center-content'><img src='img/Anna_Disgust.jpg' height='410' width='730'></img></p>",
                "expr": "disgust",
                "internal_node_id": "0.0-1.0-53.0",
                "time_elapsed": 41692,
                "key_press": 81,
                "condition": 2,
                "gend": "female",
                "trial_index": 54
            },
            {
                "rt": 692,
                "trial_type": "single-stim",
                "name": "Dmonte",
                "stimulus": "<p class='center-content'>Is this a smile?</p><p class='center-content'><img src='img/Dmonte.jpg' height='410' width='730'></img></p>",
                "expr": "neutral",
                "internal_node_id": "0.0-1.0-54.0",
                "time_elapsed": 42384,
                "key_press": 81,
                "condition": 2,
                "gend": "male",
                "trial_index": 55
            },
            {
                "rt": 609,
                "trial_type": "single-stim",
                "name": "KJ",
                "stimulus": "<p class='center-content'>Is this a smile?</p><p class='center-content'><img src='img/KJ_Reward.jpg' height='410' width='730'></img></p>",
                "expr": "reward",
                "internal_node_id": "0.0-1.0-55.0",
                "time_elapsed": 42993,
                "key_press": 80,
                "condition": 2,
                "gend": "female",
                "trial_index": 56
            },
            {
                "rt": 985,
                "trial_type": "single-stim",
                "name": "Anna",
                "stimulus": "<p class='center-content'>Is this a smile?</p><p class='center-content'><img src='img/Anna.jpg' height='410' width='730'></img></p>",
                "expr": "neutral",
                "internal_node_id": "0.0-1.0-56.0",
                "time_elapsed": 43994,
                "key_press": 80,
                "condition": 2,
                "gend": "female",
                "trial_index": 57
            },
            {
                "rt": 750,
                "trial_type": "single-stim",
                "name": "Joeseph",
                "stimulus": "<p class='center-content'>Is this a smile?</p><p class='center-content'><img src='img/Joeseph_Disgust.jpg' height='410' width='730'></img></p>",
                "expr": "disgust",
                "internal_node_id": "0.0-1.0-57.0",
                "time_elapsed": 44760,
                "key_press": 81,
                "condition": 2,
                "gend": "male",
                "trial_index": 58
            },
            {
                "rt": 701,
                "trial_type": "single-stim",
                "name": "Naomi",
                "stimulus": "<p class='center-content'>Is this a smile?</p><p class='center-content'><img src='img/Naomi.jpg' height='410' width='730'></img></p>",
                "expr": "neutral",
                "internal_node_id": "0.0-1.0-58.0",
                "time_elapsed": 45461,
                "key_press": 81,
                "condition": 2,
                "gend": "female",
                "trial_index": 59
            },
            {
                "rt": 824,
                "trial_type": "single-stim",
                "name": "Mary",
                "stimulus": "<p class='center-content'>Is this a smile?</p><p class='center-content'><img src='img/Mary_Affiliation.jpg' height='410' width='730'></img></p>",
                "expr": "affiliation",
                "internal_node_id": "0.0-1.0-59.0",
                "time_elapsed": 46301,
                "key_press": 80,
                "condition": 2,
                "gend": "female",
                "trial_index": 60
            },
            {
                "rt": 777,
                "trial_type": "single-stim",
                "name": "Jessica",
                "stimulus": "<p class='center-content'>Is this a smile?</p><p class='center-content'><img src='img/Jessica.jpg' height='410' width='730'></img></p>",
                "expr": "neutral",
                "internal_node_id": "0.0-1.0-60.0",
                "time_elapsed": 47094,
                "key_press": 80,
                "condition": 2,
                "gend": "female",
                "trial_index": 61
            },
            {
                "rt": 469,
                "trial_type": "single-stim",
                "name": "Ashley",
                "stimulus": "<p class='center-content'>Is this a smile?</p><p class='center-content'><img src='img/Ashley_Affiliation.jpg' height='410' width='730'></img></p>",
                "expr": "affiliation",
                "internal_node_id": "0.0-1.0-61.0",
                "time_elapsed": 47563,
                "key_press": 80,
                "condition": 2,
                "gend": "female",
                "trial_index": 62
            },
            {
                "rt": 623,
                "trial_type": "single-stim",
                "name": "Andrew",
                "stimulus": "<p class='center-content'>Is this a smile?</p><p class='center-content'><img src='img/Andrew_Disgust.jpg' height='410' width='730'></img></p>",
                "expr": "disgust",
                "internal_node_id": "0.0-1.0-62.0",
                "time_elapsed": 48186,
                "key_press": 81,
                "condition": 2,
                "gend": "male",
                "trial_index": 63
            },
            {
                "rt": 834,
                "trial_type": "single-stim",
                "name": "Joeseph",
                "stimulus": "<p class='center-content'>Is this a smile?</p><p class='center-content'><img src='img/Joeseph.jpg' height='410' width='730'></img></p>",
                "expr": "neutral",
                "internal_node_id": "0.0-1.0-63.0",
                "time_elapsed": 49053,
                "key_press": 81,
                "condition": 2,
                "gend": "male",
                "trial_index": 64
            },
            {
                "rt": 915,
                "trial_type": "single-stim",
                "name": "Maurice",
                "stimulus": "<p class='center-content'>Is this a smile?</p><p class='center-content'><img src='img/Maurice.jpg' height='410' width='730'></img></p>",
                "expr": "neutral",
                "internal_node_id": "0.0-1.0-64.0",
                "time_elapsed": 49968,
                "key_press": 81,
                "condition": 2,
                "gend": "male",
                "trial_index": 65
            },
            {
                "rt": 657,
                "trial_type": "single-stim",
                "name": "Zach",
                "stimulus": "<p class='center-content'>Is this a smile?</p><p class='center-content'><img src='img/Zach_Dominance.jpg' height='410' width='730'></img></p>",
                "expr": "dominance",
                "internal_node_id": "0.0-1.0-65.0",
                "time_elapsed": 50656,
                "key_press": 80,
                "condition": 2,
                "gend": "male",
                "trial_index": 66
            },
            {
                "rt": 632,
                "trial_type": "single-stim",
                "name": "Andrew",
                "stimulus": "<p class='center-content'>Is this a smile?</p><p class='center-content'><img src='img/Andrew_Dominance.jpg' height='410' width='730'></img></p>",
                "expr": "dominance",
                "internal_node_id": "0.0-1.0-66.0",
                "time_elapsed": 51288,
                "key_press": 80,
                "condition": 2,
                "gend": "male",
                "trial_index": 67
            },
            {
                "rt": 644,
                "trial_type": "single-stim",
                "name": "Zach",
                "stimulus": "<p class='center-content'>Is this a smile?</p><p class='center-content'><img src='img/Zach_Affiliation.jpg' height='410' width='730'></img></p>",
                "expr": "affiliation",
                "internal_node_id": "0.0-1.0-67.0",
                "time_elapsed": 51932,
                "key_press": 80,
                "condition": 2,
                "gend": "male",
                "trial_index": 68
            },
            {
                "rt": -871,
                "trial_type": "single-stim",
                "name": "Anna",
                "stimulus": "<p class='center-content'>Is this a smile?</p><p class='center-content'><img src='img/Anna_Affiliation.jpg' height='410' width='730'></img></p>",
                "expr": "affiliation",
                "internal_node_id": "0.0-1.0-68.0",
                "time_elapsed": 51061,
                "key_press": 80,
                "condition": 2,
                "gend": "female",
                "trial_index": 69
            },
            {
                "rt": 640,
                "trial_type": "single-stim",
                "name": "Mary",
                "stimulus": "<p class='center-content'>Is this a smile?</p><p class='center-content'><img src='img/Mary_Disgust.jpg' height='410' width='730'></img></p>",
                "expr": "disgust",
                "internal_node_id": "0.0-1.0-69.0",
                "time_elapsed": 51732,
                "key_press": 81,
                "condition": 2,
                "gend": "female",
                "trial_index": 70
            },
            {
                "rt": 621,
                "trial_type": "single-stim",
                "name": "Marcus",
                "stimulus": "<p class='center-content'>Is this a smile?</p><p class='center-content'><img src='img/Marcus_Disgust.jpg' height='410' width='730'></img></p>",
                "expr": "disgust",
                "internal_node_id": "0.0-1.0-70.0",
                "time_elapsed": 52353,
                "key_press": 81,
                "condition": 2,
                "gend": "male",
                "trial_index": 71
            },
            {
                "rt": 581,
                "trial_type": "single-stim",
                "name": "Mary",
                "stimulus": "<p class='center-content'>Is this a smile?</p><p class='center-content'><img src='img/Mary_Reward.jpg' height='410' width='730'></img></p>",
                "expr": "reward",
                "internal_node_id": "0.0-1.0-71.0",
                "time_elapsed": 52965,
                "key_press": 80,
                "condition": 2,
                "gend": "female",
                "trial_index": 72
            },
            {
                "rt": 662,
                "trial_type": "single-stim",
                "name": "Jessica",
                "stimulus": "<p class='center-content'>Is this a smile?</p><p class='center-content'><img src='img/Jessica_Dominance.jpg' height='410' width='730'></img></p>",
                "expr": "dominance",
                "internal_node_id": "0.0-1.0-72.0",
                "time_elapsed": 53627,
                "key_press": 80,
                "condition": 2,
                "gend": "female",
                "trial_index": 73
            },
            {
                "rt": 482,
                "trial_type": "single-stim",
                "name": "Andrew",
                "stimulus": "<p class='center-content'>Is this a smile?</p><p class='center-content'><img src='img/Andrew_Affiliation.jpg' height='410' width='730'></img></p>",
                "expr": "affiliation",
                "internal_node_id": "0.0-1.0-73.0",
                "time_elapsed": 54109,
                "key_press": 80,
                "condition": 2,
                "gend": "male",
                "trial_index": 74
            },
            {
                "rt": 1157,
                "trial_type": "single-stim",
                "name": "Mary",
                "stimulus": "<p class='center-content'>Is this a smile?</p><p class='center-content'><img src='img/Mary_Dominance.jpg' height='410' width='730'></img></p>",
                "expr": "dominance",
                "internal_node_id": "0.0-1.0-74.0",
                "time_elapsed": 55266,
                "key_press": 80,
                "condition": 2,
                "gend": "female",
                "trial_index": 75
            },
            {
                "rt": 21235,
                "trial_type": "survey-multi-choice",
                "responses": "{\"Q0\":\"Male\",\"Q1\":\"East Asian/East Asian American (e.g., Chinese, Japanese, Korean)\",\"Q2\":\"Right\",\"Q3\":\"Q\",\"Q4\":\"P\"}",
                "internal_node_id": "0.0-2.0",
                "time_elapsed": 76539,
                "trial_index": 76
            },
            {
                "rt": 2351,
                "trial_type": "survey-text",
                "responses": "{\"Q0\":\"no\"}",
                "internal_node_id": "0.0-3.0",
                "time_elapsed": 79928,
                "trial_index": 77
            },
            {
                "rt": 2708,
                "trial_type": "text",
                "internal_node_id": "0.0-4.0",
                "time_elapsed": 83675,
                "key_press": 32,
                "trial_index": 78
            }
        ]
    },
    "AcceptTime": "2017-11-29T18:00:10Z",
    "HITId": "30F94FBDNRK94G1JP20DWT8BINZBT7",
    "Assignment": "",
    "AssignmentStatus": "Approved",
    "SubmitTime": "2017-11-29T18:08:28Z"
}