{
    "ApprovalTime": "2017-11-29T18:09:59Z",
    "AutoApprovalTime": "2017-11-29T18:09:12Z",
    "AssignmentId": "xxxx",
    "WorkerId": "subject2",
    "answers": {
        "data": [
            {
                "rt": 11493,
                "trial_type": "text",
                "internal_node_id": "0.0-0.0",
                "time_elapsed": 11497,
                "key_press": 80,
                "trial_index": 0
            },
            {
                "rt": 822,
                "trial_type": "single-stim",
                "name": "Ashley",
                "stimulus": "<p class='center-content'>Is this a smile?</p><p class='center-content'><img src='img/Ashley_Affiliation.jpg' height='410' width='730'></img></p>",
                "expr": "affiliation",
                "internal_node_id": "0.0-1.0-0.0",
                "time_elapsed": 14327,
                "key_press": 80,
                "condition": 2,
                "gend": "female",
                "trial_index": 1
            },
            {
                "rt": 895,
                "trial_type": "single-stim",
                "name": "Mary",
                "stimulus": "<p class='center-content'>Is this a smile?</p><p class='center-content'><img src='img/Mary_Reward.jpg' height='410' width='730'></img></p>",
                "expr": "reward",
                "internal_node_id": "0.0-1.0-1.0",
                "time_elapsed": 15231,
                "key_press": 80,
                "condition": 2,
                "gend": "female",
                "trial_index": 2
            },
            {
                "rt": 2139,
                "trial_type": "single-stim",
                "name": "Jessica",
                "stimulus": "<p class='center-content'>Is this a smile?</p><p class='center-content'><img src='img/Jessica.jpg' height='410' width='730'></img></p>",
                "expr": "neutral",
                "internal_node_id": "0.0-1.0-2.0",
                "time_elapsed": 17379,
                "key_press": 81,
                "condition": 2,
                "gend": "female",
                "trial_index": 3
            },
            {
                "rt": 704,
                "trial_type": "single-stim",
                "name": "Joeseph",
                "stimulus": "<p class='center-content'>Is this a smile?</p><p class='center-content'><img src='img/Joeseph_Reward.jpg' height='410' width='730'></img></p>",
                "expr": "reward",
                "internal_node_id": "0.0-1.0-3.0",
                "time_elapsed": 18094,
                "key_press": 80,
                "condition": 2,
                "gend": "male",
                "trial_index": 4
            },
            {
                "rt": 975,
                "trial_type": "single-stim",
                "name": "Anthony",
                "stimulus": "<p class='center-content'>Is this a smile?</p><p class='center-content'><img src='img/Anthony_Disgust.jpg' height='410' width='730'></img></p>",
                "expr": "disgust",
                "internal_node_id": "0.0-1.0-4.0",
                "time_elapsed": 19078,
                "key_press": 81,
                "condition": 2,
                "gend": "male",
                "trial_index": 5
            },
            {
                "rt": 1276,
                "trial_type": "single-stim",
                "name": "Andrew",
                "stimulus": "<p class='center-content'>Is this a smile?</p><p class='center-content'><img src='img/Andrew_Affiliation.jpg' height='410' width='730'></img></p>",
                "expr": "affiliation",
                "internal_node_id": "0.0-1.0-5.0",
                "time_elapsed": 20361,
                "key_press": 80,
                "condition": 2,
                "gend": "male",
                "trial_index": 6
            },
            {
                "rt": 725,
                "trial_type": "single-stim",
                "name": "Naomi",
                "stimulus": "<p class='center-content'>Is this a smile?</p><p class='center-content'><img src='img/Naomi_Dominance.jpg' height='410' width='730'></img></p>",
                "expr": "dominance",
                "internal_node_id": "0.0-1.0-6.0",
                "time_elapsed": 21095,
                "key_press": 80,
                "condition": 2,
                "gend": "female",
                "trial_index": 7
            },
            {
                "rt": 749,
                "trial_type": "single-stim",
                "name": "Andrew",
                "stimulus": "<p class='center-content'>Is this a smile?</p><p class='center-content'><img src='img/Andrew_Dominance.jpg' height='410' width='730'></img></p>",
                "expr": "dominance",
                "internal_node_id": "0.0-1.0-7.0",
                "time_elapsed": 21851,
                "key_press": 80,
                "condition": 2,
                "gend": "male",
                "trial_index": 8
            },
            {
                "rt": 886,
                "trial_type": "single-stim",
                "name": "Jourdan",
                "stimulus": "<p class='center-content'>Is this a smile?</p><p class='center-content'><img src='img/Jourdan_Disgust.jpg' height='410' width='730'></img></p>",
                "expr": "disgust",
                "internal_node_id": "0.0-1.0-8.0",
                "time_elapsed": 22745,
                "key_press": 81,
                "condition": 2,
                "gend": "male",
                "trial_index": 9
            },
            {
                "rt": 849,
                "trial_type": "single-stim",
                "name": "Ashley",
                "stimulus": "<p class='center-content'>Is this a smile?</p><p class='center-content'><img src='img/Ashley.jpg' height='410' width='730'></img></p>",
                "expr": "neutral",
                "internal_node_id": "0.0-1.0-9.0",
                "time_elapsed": 23599,
                "key_press": 81,
                "condition": 2,
                "gend": "female",
                "trial_index": 10
            },
            {
                "rt": 918,
                "trial_type": "single-stim",
                "name": "KJ",
                "stimulus": "<p class='center-content'>Is this a smile?</p><p class='center-content'><img src='img/KJ_Disgust.jpg' height='410' width='730'></img></p>",
                "expr": "disgust",
                "internal_node_id": "0.0-1.0-10.0",
                "time_elapsed": 24523,
                "key_press": 81,
                "condition": 2,
                "gend": "female",
                "trial_index": 11
            },
            {
                "rt": 1137,
                "trial_type": "single-stim",
                "name": "Lulu",
                "stimulus": "<p class='center-content'>Is this a smile?</p><p class='center-content'><img src='img/Lulu_Affiliation.jpg' height='410' width='730'></img></p>",
                "expr": "affiliation",
                "internal_node_id": "0.0-1.0-11.0",
                "time_elapsed": 25667,
                "key_press": 81,
                "condition": 2,
                "gend": "female",
                "trial_index": 12
            },
            {
                "rt": 700,
                "trial_type": "single-stim",
                "name": "KJ",
                "stimulus": "<p class='center-content'>Is this a smile?</p><p class='center-content'><img src='img/KJ_Reward.jpg' height='410' width='730'></img></p>",
                "expr": "reward",
                "internal_node_id": "0.0-1.0-12.0",
                "time_elapsed": 26373,
                "key_press": 80,
                "condition": 2,
                "gend": "female",
                "trial_index": 13
            },
            {
                "rt": 1462,
                "trial_type": "single-stim",
                "name": "Anthony",
                "stimulus": "<p class='center-content'>Is this a smile?</p><p class='center-content'><img src='img/Anthony.jpg' height='410' width='730'></img></p>",
                "expr": "neutral",
                "internal_node_id": "0.0-1.0-13.0",
                "time_elapsed": 27844,
                "key_press": 81,
                "condition": 2,
                "gend": "male",
                "trial_index": 14
            },
            {
                "rt": 1574,
                "trial_type": "single-stim",
                "name": "Mary",
                "stimulus": "<p class='center-content'>Is this a smile?</p><p class='center-content'><img src='img/Mary_Dominance.jpg' height='410' width='730'></img></p>",
                "expr": "dominance",
                "internal_node_id": "0.0-1.0-14.0",
                "time_elapsed": 29424,
                "key_press": 80,
                "condition": 2,
                "gend": "female",
                "trial_index": 15
            },
            {
                "rt": 888,
                "trial_type": "single-stim",
                "name": "Maurice",
                "stimulus": "<p class='center-content'>Is this a smile?</p><p class='center-content'><img src='img/Maurice_Disgust.jpg' height='410' width='730'></img></p>",
                "expr": "disgust",
                "internal_node_id": "0.0-1.0-15.0",
                "time_elapsed": 30319,
                "key_press": 81,
                "condition": 2,
                "gend": "male",
                "trial_index": 16
            },
            {
                "rt": 938,
                "trial_type": "single-stim",
                "name": "Dmonte",
                "stimulus": "<p class='center-content'>Is this a smile?</p><p class='center-content'><img src='img/Dmonte_Reward.jpg' height='410' width='730'></img></p>",
                "expr": "reward",
                "internal_node_id": "0.0-1.0-16.0",
                "time_elapsed": 31263,
                "key_press": 80,
                "condition": 2,
                "gend": "male",
                "trial_index": 17
            },
            {
                "rt": 1087,
                "trial_type": "single-stim",
                "name": "Jourdan",
                "stimulus": "<p class='center-content'>Is this a smile?</p><p class='center-content'><img src='img/Jourdan_Dominance.jpg' height='410' width='730'></img></p>",
                "expr": "dominance",
                "internal_node_id": "0.0-1.0-17.0",
                "time_elapsed": 32356,
                "key_press": 81,
                "condition": 2,
                "gend": "male",
                "trial_index": 18
            },
            {
                "rt": 1514,
                "trial_type": "single-stim",
                "name": "Anthony",
                "stimulus": "<p class='center-content'>Is this a smile?</p><p class='center-content'><img src='img/Anthony_Affiliation.jpg' height='410' width='730'></img></p>",
                "expr": "affiliation",
                "internal_node_id": "0.0-1.0-18.0",
                "time_elapsed": 33877,
                "key_press": 80,
                "condition": 2,
                "gend": "male",
                "trial_index": 19
            },
            {
                "rt": 750,
                "trial_type": "single-stim",
                "name": "Marcus",
                "stimulus": "<p class='center-content'>Is this a smile?</p><p class='center-content'><img src='img/Marcus_Reward.jpg' height='410' width='730'></img></p>",
                "expr": "reward",
                "internal_node_id": "0.0-1.0-19.0",
                "time_elapsed": 34632,
                "key_press": 80,
                "condition": 2,
                "gend": "male",
                "trial_index": 20
            },
            {
                "rt": 1266,
                "trial_type": "single-stim",
                "name": "Joeseph",
                "stimulus": "<p class='center-content'>Is this a smile?</p><p class='center-content'><img src='img/Joeseph_Dominance.jpg' height='410' width='730'></img></p>",
                "expr": "dominance",
                "internal_node_id": "0.0-1.0-20.0",
                "time_elapsed": 35905,
                "key_press": 80,
                "condition": 2,
                "gend": "male",
                "trial_index": 21
            },
            {
                "rt": 769,
                "trial_type": "single-stim",
                "name": "Naomi",
                "stimulus": "<p class='center-content'>Is this a smile?</p><p class='center-content'><img src='img/Naomi_Affiliation.jpg' height='410' width='730'></img></p>",
                "expr": "affiliation",
                "internal_node_id": "0.0-1.0-21.0",
                "time_elapsed": 36680,
                "key_press": 80,
                "condition": 2,
                "gend": "female",
                "trial_index": 22
            },
            {
                "rt": 1068,
                "trial_type": "single-stim",
                "name": "Maurice",
                "stimulus": "<p class='center-content'>Is this a smile?</p><p class='center-content'><img src='img/Maurice_Reward.jpg' height='410' width='730'></img></p>",
                "expr": "reward",
                "internal_node_id": "0.0-1.0-22.0",
                "time_elapsed": 37754,
                "key_press": 80,
                "condition": 2,
                "gend": "male",
                "trial_index": 23
            },
            {
                "rt": 1097,
                "trial_type": "single-stim",
                "name": "Maurice",
                "stimulus": "<p class='center-content'>Is this a smile?</p><p class='center-content'><img src='img/Maurice.jpg' height='410' width='730'></img></p>",
                "expr": "neutral",
                "internal_node_id": "0.0-1.0-23.0",
                "time_elapsed": 38857,
                "key_press": 81,
                "condition": 2,
                "gend": "male",
                "trial_index": 24
            },
            {
                "rt": 1671,
                "trial_type": "single-stim",
                "name": "Naomi",
                "stimulus": "<p class='center-content'>Is this a smile?</p><p class='center-content'><img src='img/Naomi_DIsgust.jpg' height='410' width='730'></img></p>",
                "expr": "disgust",
                "internal_node_id": "0.0-1.0-24.0",
                "time_elapsed": 40537,
                "key_press": 81,
                "condition": 2,
                "gend": "female",
                "trial_index": 25
            },
            {
                "rt": 909,
                "trial_type": "single-stim",
                "name": "Mary",
                "stimulus": "<p class='center-content'>Is this a smile?</p><p class='center-content'><img src='img/Mary.jpg' height='410' width='730'></img></p>",
                "expr": "neutral",
                "internal_node_id": "0.0-1.0-25.0",
                "time_elapsed": 41451,
                "key_press": 81,
                "condition": 2,
                "gend": "female",
                "trial_index": 26
            },
            {
                "rt": 789,
                "trial_type": "single-stim",
                "name": "Andrew",
                "stimulus": "<p class='center-content'>Is this a smile?</p><p class='center-content'><img src='img/Andrew_Reward.jpg' height='410' width='730'></img></p>",
                "expr": "reward",
                "internal_node_id": "0.0-1.0-26.0",
                "time_elapsed": 42247,
                "key_press": 80,
                "condition": 2,
                "gend": "male",
                "trial_index": 27
            },
            {
                "rt": 719,
                "trial_type": "single-stim",
                "name": "Mary",
                "stimulus": "<p class='center-content'>Is this a smile?</p><p class='center-content'><img src='img/Mary_Disgust.jpg' height='410' width='730'></img></p>",
                "expr": "disgust",
                "internal_node_id": "0.0-1.0-27.0",
                "time_elapsed": 42972,
                "key_press": 81,
                "condition": 2,
                "gend": "female",
                "trial_index": 28
            },
            {
                "rt": 869,
                "trial_type": "single-stim",
                "name": "Jessica",
                "stimulus": "<p class='center-content'>Is this a smile?</p><p class='center-content'><img src='img/Jessica_Dominance.jpg' height='410' width='730'></img></p>",
                "expr": "dominance",
                "internal_node_id": "0.0-1.0-28.0",
                "time_elapsed": 43847,
                "key_press": 80,
                "condition": 2,
                "gend": "female",
                "trial_index": 29
            },
            {
                "rt": 760,
                "trial_type": "single-stim",
                "name": "Andrew",
                "stimulus": "<p class='center-content'>Is this a smile?</p><p class='center-content'><img src='img/Andrew.jpg' height='410' width='730'></img></p>",
                "expr": "neutral",
                "internal_node_id": "0.0-1.0-29.0",
                "time_elapsed": 44613,
                "key_press": 81,
                "condition": 2,
                "gend": "male",
                "trial_index": 30
            },
            {
                "rt": 709,
                "trial_type": "single-stim",
                "name": "Zach",
                "stimulus": "<p class='center-content'>Is this a smile?</p><p class='center-content'><img src='img/Zach_Dominance.jpg' height='410' width='730'></img></p>",
                "expr": "dominance",
                "internal_node_id": "0.0-1.0-30.0",
                "time_elapsed": 45327,
                "key_press": 81,
                "condition": 2,
                "gend": "male",
                "trial_index": 31
            },
            {
                "rt": 760,
                "trial_type": "single-stim",
                "name": "Zach",
                "stimulus": "<p class='center-content'>Is this a smile?</p><p class='center-content'><img src='img/Zach.jpg' height='410' width='730'></img></p>",
                "expr": "neutral",
                "internal_node_id": "0.0-1.0-31.0",
                "time_elapsed": 46093,
                "key_press": 81,
                "condition": 2,
                "gend": "male",
                "trial_index": 32
            },
            {
                "rt": 1077,
                "trial_type": "single-stim",
                "name": "Marcus",
                "stimulus": "<p class='center-content'>Is this a smile?</p><p class='center-content'><img src='img/Marcus_Dominance.jpg' height='410' width='730'></img></p>",
                "expr": "dominance",
                "internal_node_id": "0.0-1.0-32.0",
                "time_elapsed": 47176,
                "key_press": 81,
                "condition": 2,
                "gend": "male",
                "trial_index": 33
            },
            {
                "rt": 999,
                "trial_type": "single-stim",
                "name": "Lulu",
                "stimulus": "<p class='center-content'>Is this a smile?</p><p class='center-content'><img src='img/Lulu_Disgust.jpg' height='410' width='730'></img></p>",
                "expr": "disgust",
                "internal_node_id": "0.0-1.0-33.0",
                "time_elapsed": 48180,
                "key_press": 81,
                "condition": 2,
                "gend": "female",
                "trial_index": 34
            },
            {
                "rt": 849,
                "trial_type": "single-stim",
                "name": "Anthony",
                "stimulus": "<p class='center-content'>Is this a smile?</p><p class='center-content'><img src='img/Anthony_Reward.jpg' height='410' width='730'></img></p>",
                "expr": "reward",
                "internal_node_id": "0.0-1.0-34.0",
                "time_elapsed": 49035,
                "key_press": 80,
                "condition": 2,
                "gend": "male",
                "trial_index": 35
            },
            {
                "rt": 780,
                "trial_type": "single-stim",
                "name": "Marcus",
                "stimulus": "<p class='center-content'>Is this a smile?</p><p class='center-content'><img src='img/Marcus_Affiliation.jpg' height='410' width='730'></img></p>",
                "expr": "affiliation",
                "internal_node_id": "0.0-1.0-35.0",
                "time_elapsed": 49820,
                "key_press": 81,
                "condition": 2,
                "gend": "male",
                "trial_index": 36
            },
            {
                "rt": 1076,
                "trial_type": "single-stim",
                "name": "Jourdan",
                "stimulus": "<p class='center-content'>Is this a smile?</p><p class='center-content'><img src='img/Jourdan_Reward.jpg' height='410' width='730'></img></p>",
                "expr": "reward",
                "internal_node_id": "0.0-1.0-36.0",
                "time_elapsed": 50903,
                "key_press": 80,
                "condition": 2,
                "gend": "male",
                "trial_index": 37
            },
            {
                "rt": 740,
                "trial_type": "single-stim",
                "name": "Maurice",
                "stimulus": "<p class='center-content'>Is this a smile?</p><p class='center-content'><img src='img/Maurice_Dominance.jpg' height='410' width='730'></img></p>",
                "expr": "dominance",
                "internal_node_id": "0.0-1.0-37.0",
                "time_elapsed": 51649,
                "key_press": 81,
                "condition": 2,
                "gend": "male",
                "trial_index": 38
            },
            {
                "rt": 947,
                "trial_type": "single-stim",
                "name": "Dmonte",
                "stimulus": "<p class='center-content'>Is this a smile?</p><p class='center-content'><img src='img/Dmonte_Affiliation.jpg' height='410' width='730'></img></p>",
                "expr": "affiliation",
                "internal_node_id": "0.0-1.0-38.0",
                "time_elapsed": 52603,
                "key_press": 80,
                "condition": 2,
                "gend": "male",
                "trial_index": 39
            },
            {
                "rt": 849,
                "trial_type": "single-stim",
                "name": "Anna",
                "stimulus": "<p class='center-content'>Is this a smile?</p><p class='center-content'><img src='img/Anna_Affiliation.jpg' height='410' width='730'></img></p>",
                "expr": "affiliation",
                "internal_node_id": "0.0-1.0-39.0",
                "time_elapsed": 53458,
                "key_press": 80,
                "condition": 2,
                "gend": "female",
                "trial_index": 40
            },
            {
                "rt": 1325,
                "trial_type": "single-stim",
                "name": "Jessica",
                "stimulus": "<p class='center-content'>Is this a smile?</p><p class='center-content'><img src='img/Jessica_Reward.jpg' height='410' width='730'></img></p>",
                "expr": "reward",
                "internal_node_id": "0.0-1.0-40.0",
                "time_elapsed": 54790,
                "key_press": 80,
                "condition": 2,
                "gend": "female",
                "trial_index": 41
            },
            {
                "rt": 1008,
                "trial_type": "single-stim",
                "name": "Dmonte",
                "stimulus": "<p class='center-content'>Is this a smile?</p><p class='center-content'><img src='img/Dmonte.jpg' height='410' width='730'></img></p>",
                "expr": "neutral",
                "internal_node_id": "0.0-1.0-41.0",
                "time_elapsed": 55804,
                "key_press": 81,
                "condition": 2,
                "gend": "male",
                "trial_index": 42
            },
            {
                "rt": 978,
                "trial_type": "single-stim",
                "name": "Ashley",
                "stimulus": "<p class='center-content'>Is this a smile?</p><p class='center-content'><img src='img/Ashley_Reward.jpg' height='410' width='730'></img></p>",
                "expr": "reward",
                "internal_node_id": "0.0-1.0-42.0",
                "time_elapsed": 56787,
                "key_press": 80,
                "condition": 2,
                "gend": "female",
                "trial_index": 43
            },
            {
                "rt": 859,
                "trial_type": "single-stim",
                "name": "Dmonte",
                "stimulus": "<p class='center-content'>Is this a smile?</p><p class='center-content'><img src='img/Dmonte_Disgust.jpg' height='410' width='730'></img></p>",
                "expr": "disgust",
                "internal_node_id": "0.0-1.0-43.0",
                "time_elapsed": 57652,
                "key_press": 81,
                "condition": 2,
                "gend": "male",
                "trial_index": 44
            },
            {
                "rt": 1246,
                "trial_type": "single-stim",
                "name": "KJ",
                "stimulus": "<p class='center-content'>Is this a smile?</p><p class='center-content'><img src='img/KJ.jpg' height='410' width='730'></img></p>",
                "expr": "neutral",
                "internal_node_id": "0.0-1.0-44.0",
                "time_elapsed": 58904,
                "key_press": 81,
                "condition": 2,
                "gend": "female",
                "trial_index": 45
            },
            {
                "rt": 1733,
                "trial_type": "single-stim",
                "name": "Lulu",
                "stimulus": "<p class='center-content'>Is this a smile?</p><p class='center-content'><img src='img/Lulu_Reward.jpg' height='410' width='730'></img></p>",
                "expr": "reward",
                "internal_node_id": "0.0-1.0-45.0",
                "time_elapsed": 60644,
                "key_press": 80,
                "condition": 2,
                "gend": "female",
                "trial_index": 46
            },
            {
                "rt": 3324,
                "trial_type": "single-stim",
                "name": "Mary",
                "stimulus": "<p class='center-content'>Is this a smile?</p><p class='center-content'><img src='img/Mary_Affiliation.jpg' height='410' width='730'></img></p>",
                "expr": "affiliation",
                "internal_node_id": "0.0-1.0-46.0",
                "time_elapsed": 63973,
                "key_press": 81,
                "condition": 2,
                "gend": "female",
                "trial_index": 47
            },
            {
                "rt": 859,
                "trial_type": "single-stim",
                "name": "Zach",
                "stimulus": "<p class='center-content'>Is this a smile?</p><p class='center-content'><img src='img/Zach_Disgust.jpg' height='410' width='730'></img></p>",
                "expr": "disgust",
                "internal_node_id": "0.0-1.0-47.0",
                "time_elapsed": 64838,
                "key_press": 81,
                "condition": 2,
                "gend": "male",
                "trial_index": 48
            },
            {
                "rt": 1981,
                "trial_type": "single-stim",
                "name": "Maurice",
                "stimulus": "<p class='center-content'>Is this a smile?</p><p class='center-content'><img src='img/Maurice_Affiliation.jpg' height='410' width='730'></img></p>",
                "expr": "affiliation",
                "internal_node_id": "0.0-1.0-48.0",
                "time_elapsed": 66826,
                "key_press": 80,
                "condition": 2,
                "gend": "male",
                "trial_index": 49
            },
            {
                "rt": 880,
                "trial_type": "single-stim",
                "name": "Zach",
                "stimulus": "<p class='center-content'>Is this a smile?</p><p class='center-content'><img src='img/Zach_Reward.jpg' height='410' width='730'></img></p>",
                "expr": "reward",
                "internal_node_id": "0.0-1.0-49.0",
                "time_elapsed": 67710,
                "key_press": 80,
                "condition": 2,
                "gend": "male",
                "trial_index": 50
            },
            {
                "rt": 719,
                "trial_type": "single-stim",
                "name": "Marcus",
                "stimulus": "<p class='center-content'>Is this a smile?</p><p class='center-content'><img src='img/Marcus.jpg' height='410' width='730'></img></p>",
                "expr": "neutral",
                "internal_node_id": "0.0-1.0-50.0",
                "time_elapsed": 68436,
                "key_press": 81,
                "condition": 2,
                "gend": "male",
                "trial_index": 51
            },
            {
                "rt": 919,
                "trial_type": "single-stim",
                "name": "Anna",
                "stimulus": "<p class='center-content'>Is this a smile?</p><p class='center-content'><img src='img/Anna_Disgust.jpg' height='410' width='730'></img></p>",
                "expr": "disgust",
                "internal_node_id": "0.0-1.0-51.0",
                "time_elapsed": 69360,
                "key_press": 80,
                "condition": 2,
                "gend": "female",
                "trial_index": 52
            },
            {
                "rt": 1157,
                "trial_type": "single-stim",
                "name": "Jessica",
                "stimulus": "<p class='center-content'>Is this a smile?</p><p class='center-content'><img src='img/Jessica_Disgust.jpg' height='410' width='730'></img></p>",
                "expr": "disgust",
                "internal_node_id": "0.0-1.0-52.0",
                "time_elapsed": 70523,
                "key_press": 81,
                "condition": 2,
                "gend": "female",
                "trial_index": 53
            },
            {
                "rt": 868,
                "trial_type": "single-stim",
                "name": "Jourdan",
                "stimulus": "<p class='center-content'>Is this a smile?</p><p class='center-content'><img src='img/Jourdan_Affiliation.jpg' height='410' width='730'></img></p>",
                "expr": "affiliation",
                "internal_node_id": "0.0-1.0-53.0",
                "time_elapsed": 71398,
                "key_press": 81,
                "condition": 2,
                "gend": "male",
                "trial_index": 54
            },
            {
                "rt": 948,
                "trial_type": "single-stim",
                "name": "KJ",
                "stimulus": "<p class='center-content'>Is this a smile?</p><p class='center-content'><img src='img/KJ_Affiliation.jpg' height='410' width='730'></img></p>",
                "expr": "affiliation",
                "internal_node_id": "0.0-1.0-54.0",
                "time_elapsed": 72352,
                "key_press": 80,
                "condition": 2,
                "gend": "female",
                "trial_index": 55
            },
            {
                "rt": 829,
                "trial_type": "single-stim",
                "name": "Joeseph",
                "stimulus": "<p class='center-content'>Is this a smile?</p><p class='center-content'><img src='img/Joeseph.jpg' height='410' width='730'></img></p>",
                "expr": "neutral",
                "internal_node_id": "0.0-1.0-55.0",
                "time_elapsed": 73187,
                "key_press": 81,
                "condition": 2,
                "gend": "male",
                "trial_index": 56
            },
            {
                "rt": 1621,
                "trial_type": "single-stim",
                "name": "Anna",
                "stimulus": "<p class='center-content'>Is this a smile?</p><p class='center-content'><img src='img/Anna_Dominance.jpg' height='410' width='730'></img></p>",
                "expr": "dominance",
                "internal_node_id": "0.0-1.0-56.0",
                "time_elapsed": 74817,
                "key_press": 80,
                "condition": 2,
                "gend": "female",
                "trial_index": 57
            },
            {
                "rt": 789,
                "trial_type": "single-stim",
                "name": "Anthony",
                "stimulus": "<p class='center-content'>Is this a smile?</p><p class='center-content'><img src='img/Anthony_Dominance.jpg' height='410' width='730'></img></p>",
                "expr": "dominance",
                "internal_node_id": "0.0-1.0-57.0",
                "time_elapsed": 75612,
                "key_press": 81,
                "condition": 2,
                "gend": "male",
                "trial_index": 58
            },
            {
                "rt": 780,
                "trial_type": "single-stim",
                "name": "Joeseph",
                "stimulus": "<p class='center-content'>Is this a smile?</p><p class='center-content'><img src='img/Joeseph_Affiliation.jpg' height='410' width='730'></img></p>",
                "expr": "affiliation",
                "internal_node_id": "0.0-1.0-58.0",
                "time_elapsed": 76397,
                "key_press": 80,
                "condition": 2,
                "gend": "male",
                "trial_index": 59
            },
            {
                "rt": 1156,
                "trial_type": "single-stim",
                "name": "Ashley",
                "stimulus": "<p class='center-content'>Is this a smile?</p><p class='center-content'><img src='img/Ashley_Dominance.jpg' height='410' width='730'></img></p>",
                "expr": "dominance",
                "internal_node_id": "0.0-1.0-59.0",
                "time_elapsed": 77560,
                "key_press": 80,
                "condition": 2,
                "gend": "female",
                "trial_index": 60
            },
            {
                "rt": 1456,
                "trial_type": "single-stim",
                "name": "Lulu",
                "stimulus": "<p class='center-content'>Is this a smile?</p><p class='center-content'><img src='img/Lulu_Dominance.jpg' height='410' width='730'></img></p>",
                "expr": "dominance",
                "internal_node_id": "0.0-1.0-60.0",
                "time_elapsed": 79021,
                "key_press": 80,
                "condition": 2,
                "gend": "female",
                "trial_index": 61
            },
            {
                "rt": 818,
                "trial_type": "single-stim",
                "name": "Zach",
                "stimulus": "<p class='center-content'>Is this a smile?</p><p class='center-content'><img src='img/Zach_Affiliation.jpg' height='410' width='730'></img></p>",
                "expr": "affiliation",
                "internal_node_id": "0.0-1.0-61.0",
                "time_elapsed": 79846,
                "key_press": 81,
                "condition": 2,
                "gend": "male",
                "trial_index": 62
            },
            {
                "rt": 2300,
                "trial_type": "single-stim",
                "name": "Naomi",
                "stimulus": "<p class='center-content'>Is this a smile?</p><p class='center-content'><img src='img/Naomi.jpg' height='410' width='730'></img></p>",
                "expr": "neutral",
                "internal_node_id": "0.0-1.0-62.0",
                "time_elapsed": 82152,
                "key_press": 81,
                "condition": 2,
                "gend": "female",
                "trial_index": 63
            },
            {
                "rt": 2121,
                "trial_type": "single-stim",
                "name": "Dmonte",
                "stimulus": "<p class='center-content'>Is this a smile?</p><p class='center-content'><img src='img/Dmonte_Dominance.jpg' height='410' width='730'></img></p>",
                "expr": "dominance",
                "internal_node_id": "0.0-1.0-63.0",
                "time_elapsed": 84279,
                "key_press": 81,
                "condition": 2,
                "gend": "male",
                "trial_index": 64
            },
            {
                "rt": 680,
                "trial_type": "single-stim",
                "name": "Lulu",
                "stimulus": "<p class='center-content'>Is this a smile?</p><p class='center-content'><img src='img/Lulu.jpg' height='410' width='730'></img></p>",
                "expr": "neutral",
                "internal_node_id": "0.0-1.0-64.0",
                "time_elapsed": 84965,
                "key_press": 81,
                "condition": 2,
                "gend": "female",
                "trial_index": 65
            },
            {
                "rt": 1028,
                "trial_type": "single-stim",
                "name": "Jessica",
                "stimulus": "<p class='center-content'>Is this a smile?</p><p class='center-content'><img src='img/Jessica_Affiliation.jpg' height='410' width='730'></img></p>",
                "expr": "affiliation",
                "internal_node_id": "0.0-1.0-65.0",
                "time_elapsed": 85998,
                "key_press": 80,
                "condition": 2,
                "gend": "female",
                "trial_index": 66
            },
            {
                "rt": 749,
                "trial_type": "single-stim",
                "name": "Marcus",
                "stimulus": "<p class='center-content'>Is this a smile?</p><p class='center-content'><img src='img/Marcus_Disgust.jpg' height='410' width='730'></img></p>",
                "expr": "disgust",
                "internal_node_id": "0.0-1.0-66.0",
                "time_elapsed": 86753,
                "key_press": 81,
                "condition": 2,
                "gend": "male",
                "trial_index": 67
            },
            {
                "rt": 1098,
                "trial_type": "single-stim",
                "name": "Anna",
                "stimulus": "<p class='center-content'>Is this a smile?</p><p class='center-content'><img src='img/Anna_Reward.jpg' height='410' width='730'></img></p>",
                "expr": "reward",
                "internal_node_id": "0.0-1.0-67.0",
                "time_elapsed": 87857,
                "key_press": 80,
                "condition": 2,
                "gend": "female",
                "trial_index": 68
            },
            {
                "rt": 809,
                "trial_type": "single-stim",
                "name": "Andrew",
                "stimulus": "<p class='center-content'>Is this a smile?</p><p class='center-content'><img src='img/Andrew_Disgust.jpg' height='410' width='730'></img></p>",
                "expr": "disgust",
                "internal_node_id": "0.0-1.0-68.0",
                "time_elapsed": 88672,
                "key_press": 81,
                "condition": 2,
                "gend": "male",
                "trial_index": 69
            },
            {
                "rt": 938,
                "trial_type": "single-stim",
                "name": "Naomi",
                "stimulus": "<p class='center-content'>Is this a smile?</p><p class='center-content'><img src='img/Naomi_Reward.jpg' height='410' width='730'></img></p>",
                "expr": "reward",
                "internal_node_id": "0.0-1.0-69.0",
                "time_elapsed": 89616,
                "key_press": 80,
                "condition": 2,
                "gend": "female",
                "trial_index": 70
            },
            {
                "rt": 849,
                "trial_type": "single-stim",
                "name": "Joeseph",
                "stimulus": "<p class='center-content'>Is this a smile?</p><p class='center-content'><img src='img/Joeseph_Disgust.jpg' height='410' width='730'></img></p>",
                "expr": "disgust",
                "internal_node_id": "0.0-1.0-70.0",
                "time_elapsed": 90470,
                "key_press": 81,
                "condition": 2,
                "gend": "male",
                "trial_index": 71
            },
            {
                "rt": 849,
                "trial_type": "single-stim",
                "name": "Jourdan",
                "stimulus": "<p class='center-content'>Is this a smile?</p><p class='center-content'><img src='img/Jourdan.jpg' height='410' width='730'></img></p>",
                "expr": "neutral",
                "internal_node_id": "0.0-1.0-71.0",
                "time_elapsed": 91326,
                "key_press": 81,
                "condition": 2,
                "gend": "male",
                "trial_index": 72
            },
            {
                "rt": 759,
                "trial_type": "single-stim",
                "name": "Ashley",
                "stimulus": "<p class='center-content'>Is this a smile?</p><p class='center-content'><img src='img/Ashley_Disgust.jpg' height='410' width='730'></img></p>",
                "expr": "disgust",
                "internal_node_id": "0.0-1.0-72.0",
                "time_elapsed": 92091,
                "key_press": 81,
                "condition": 2,
                "gend": "female",
                "trial_index": 73
            },
            {
                "rt": 5004,
                "trial_type": "single-stim",
                "name": "Anna",
                "stimulus": "<p class='center-content'>Is this a smile?</p><p class='center-content'><img src='img/Anna.jpg' height='410' width='730'></img></p>",
                "expr": "neutral",
                "internal_node_id": "0.0-1.0-73.0",
                "time_elapsed": 97100,
                "key_press": 81,
                "condition": 2,
                "gend": "female",
                "trial_index": 74
            },
            {
                "rt": 1386,
                "trial_type": "single-stim",
                "name": "KJ",
                "stimulus": "<p class='center-content'>Is this a smile?</p><p class='center-content'><img src='img/KJ_Dominance.jpg' height='410' width='730'></img></p>",
                "expr": "dominance",
                "internal_node_id": "0.0-1.0-74.0",
                "time_elapsed": 98492,
                "key_press": 80,
                "condition": 2,
                "gend": "female",
                "trial_index": 75
            },
            {
                "rt": 12098,
                "trial_type": "survey-multi-choice",
                "responses": "{\"Q0\":\"Male\",\"Q1\":\"White/Caucasian/European American\",\"Q2\":\"Right\",\"Q3\":\"P\",\"Q4\":\"Q\"}",
                "internal_node_id": "0.0-2.0",
                "time_elapsed": 110616,
                "trial_index": 76
            },
            {
                "rt": 3989,
                "trial_type": "survey-text",
                "responses": "{\"Q0\":\"nope\"}",
                "internal_node_id": "0.0-3.0",
                "time_elapsed": 115608,
                "trial_index": 77
            },
            {
                "rt": 4330,
                "trial_type": "text",
                "internal_node_id": "0.0-4.0",
                "time_elapsed": 120945,
                "key_press": 13,
                "trial_index": 78
            }
        ]
    },
    "AcceptTime": "2017-11-29T18:01:22Z",
    "HITId": "30F94FBDNRK94G1JP20DWT8BINZBT7",
    "Assignment": "",
    "AssignmentStatus": "Approved",
    "SubmitTime": "2017-11-29T18:04:12Z"
}