{"ApprovalTime": "2017-12-05T21:30:18Z", "AutoApprovalTime": "2017-12-05T21:29:29Z", "AssignmentId": "3QY7M81QH7MQM56Z8FF6FKV8MPLK7R", "WorkerId": "anon40", "answers": {"data": [{"rt": 6416, "trial_type": "text", "time_elapsed": 6419, "internal_node_id": "0.0-0.0", "key_press": 81, "trial_index": 0}, {"rt": 1427, "trial_type": "single-stim", "name": "Jourdan", "stimulus": "<p class='center-content'>Is this a smile?</p><p class='center-content'><img src='img/Jourdan_Dominance.jpg' height='410' width='730'></img></p>", "expr": "dominance", "time_elapsed": 9855, "internal_node_id": "0.0-1.0-0.0", "key_press": 81, "trial_index": 1, "gend": "male", "condition": 1}, {"rt": 1779, "trial_type": "single-stim", "name": "Dmonte", "stimulus": "<p class='center-content'>Is this a smile?</p><p class='center-content'><img src='img/Dmonte.jpg' height='410' width='730'></img></p>", "expr": "neutral", "time_elapsed": 11639, "internal_node_id": "0.0-1.0-1.0", "key_press": 81, "trial_index": 2, "gend": "male", "condition": 1}, {"rt": 791, "trial_type": "single-stim", "name": "Dmonte", "stimulus": "<p class='center-content'>Is this a smile?</p><p class='center-content'><img src='img/Dmonte_Disgust.jpg' height='410' width='730'></img></p>", "expr": "disgust", "time_elapsed": 12433, "internal_node_id": "0.0-1.0-2.0", "key_press": 80, "trial_index": 3, "gend": "male", "condition": 1}, {"rt": 711, "trial_type": "single-stim", "name": "Lulu", "stimulus": "<p class='center-content'>Is this a smile?</p><p class='center-content'><img src='img/Lulu_Disgust.jpg' height='410' width='730'></img></p>", "expr": "disgust", "time_elapsed": 13146, "internal_node_id": "0.0-1.0-3.0", "key_press": 80, "trial_index": 4, "gend": "female", "condition": 1}, {"rt": 967, "trial_type": "single-stim", "name": "Andrew", "stimulus": "<p class='center-content'>Is this a smile?</p><p class='center-content'><img src='img/Andrew.jpg' height='410' width='730'></img></p>", "expr": "neutral", "time_elapsed": 14116, "internal_node_id": "0.0-1.0-4.0", "key_press": 80, "trial_index": 5, "gend": "male", "condition": 1}, {"rt": 745, "trial_type": "single-stim", "name": "Ashley", "stimulus": "<p class='center-content'>Is this a smile?</p><p class='center-content'><img src='img/Ashley.jpg' height='410' width='730'></img></p>", "expr": "neutral", "time_elapsed": 14863, "internal_node_id": "0.0-1.0-5.0", "key_press": 80, "trial_index": 6, "gend": "female", "condition": 1}, {"rt": 708, "trial_type": "single-stim", "name": "Lulu", "stimulus": "<p class='center-content'>Is this a smile?</p><p class='center-content'><img src='img/Lulu.jpg' height='410' width='730'></img></p>", "expr": "neutral", "time_elapsed": 15574, "internal_node_id": "0.0-1.0-6.0", "key_press": 80, "trial_index": 7, "gend": "female", "condition": 1}, {"rt": 682, "trial_type": "single-stim", "name": "Mary", "stimulus": "<p class='center-content'>Is this a smile?</p><p class='center-content'><img src='img/Mary_Reward.jpg' height='410' width='730'></img></p>", "expr": "reward", "time_elapsed": 16259, "internal_node_id": "0.0-1.0-7.0", "key_press": 81, "trial_index": 8, "gend": "female", "condition": 1}, {"rt": 617, "trial_type": "single-stim", "name": "Maurice", "stimulus": "<p class='center-content'>Is this a smile?</p><p class='center-content'><img src='img/Maurice_Reward.jpg' height='410' width='730'></img></p>", "expr": "reward", "time_elapsed": 16879, "internal_node_id": "0.0-1.0-8.0", "key_press": 81, "trial_index": 9, "gend": "male", "condition": 1}, {"rt": 1483, "trial_type": "single-stim", "name": "Naomi", "stimulus": "<p class='center-content'>Is this a smile?</p><p class='center-content'><img src='img/Naomi_DIsgust.jpg' height='410' width='730'></img></p>", "expr": "disgust", "time_elapsed": 18365, "internal_node_id": "0.0-1.0-9.0", "key_press": 80, "trial_index": 10, "gend": "female", "condition": 1}, {"rt": 798, "trial_type": "single-stim", "name": "Anna", "stimulus": "<p class='center-content'>Is this a smile?</p><p class='center-content'><img src='img/Anna_Reward.jpg' height='410' width='730'></img></p>", "expr": "reward", "time_elapsed": 19165, "internal_node_id": "0.0-1.0-10.0", "key_press": 81, "trial_index": 11, "gend": "female", "condition": 1}, {"rt": 996, "trial_type": "single-stim", "name": "Zach", "stimulus": "<p class='center-content'>Is this a smile?</p><p class='center-content'><img src='img/Zach_Reward.jpg' height='410' width='730'></img></p>", "expr": "reward", "time_elapsed": 20166, "internal_node_id": "0.0-1.0-11.0", "key_press": 81, "trial_index": 12, "gend": "male", "condition": 1}, {"rt": 715, "trial_type": "single-stim", "name": "Ashley", "stimulus": "<p class='center-content'>Is this a smile?</p><p class='center-content'><img src='img/Ashley_Affiliation.jpg' height='410' width='730'></img></p>", "expr": "affiliation", "time_elapsed": 20884, "internal_node_id": "0.0-1.0-12.0", "key_press": 81, "trial_index": 13, "gend": "female", "condition": 1}, {"rt": 633, "trial_type": "single-stim", "name": "Lulu", "stimulus": "<p class='center-content'>Is this a smile?</p><p class='center-content'><img src='img/Lulu_Reward.jpg' height='410' width='730'></img></p>", "expr": "reward", "time_elapsed": 21520, "internal_node_id": "0.0-1.0-13.0", "key_press": 81, "trial_index": 14, "gend": "female", "condition": 1}, {"rt": 881, "trial_type": "single-stim", "name": "Lulu", "stimulus": "<p class='center-content'>Is this a smile?</p><p class='center-content'><img src='img/Lulu_Dominance.jpg' height='410' width='730'></img></p>", "expr": "dominance", "time_elapsed": 22404, "internal_node_id": "0.0-1.0-14.0", "key_press": 81, "trial_index": 15, "gend": "female", "condition": 1}, {"rt": 977, "trial_type": "single-stim", "name": "Mary", "stimulus": "<p class='center-content'>Is this a smile?</p><p class='center-content'><img src='img/Mary_Disgust.jpg' height='410' width='730'></img></p>", "expr": "disgust", "time_elapsed": 23385, "internal_node_id": "0.0-1.0-15.0", "key_press": 80, "trial_index": 16, "gend": "female", "condition": 1}, {"rt": 793, "trial_type": "single-stim", "name": "Ashley", "stimulus": "<p class='center-content'>Is this a smile?</p><p class='center-content'><img src='img/Ashley_Disgust.jpg' height='410' width='730'></img></p>", "expr": "disgust", "time_elapsed": 24181, "internal_node_id": "0.0-1.0-16.0", "key_press": 80, "trial_index": 17, "gend": "female", "condition": 1}, {"rt": 766, "trial_type": "single-stim", "name": "Zach", "stimulus": "<p class='center-content'>Is this a smile?</p><p class='center-content'><img src='img/Zach_Affiliation.jpg' height='410' width='730'></img></p>", "expr": "affiliation", "time_elapsed": 24950, "internal_node_id": "0.0-1.0-17.0", "key_press": 81, "trial_index": 18, "gend": "male", "condition": 1}, {"rt": 660, "trial_type": "single-stim", "name": "Jessica", "stimulus": "<p class='center-content'>Is this a smile?</p><p class='center-content'><img src='img/Jessica_Reward.jpg' height='410' width='730'></img></p>", "expr": "reward", "time_elapsed": 25613, "internal_node_id": "0.0-1.0-18.0", "key_press": 81, "trial_index": 19, "gend": "female", "condition": 1}, {"rt": 718, "trial_type": "single-stim", "name": "Dmonte", "stimulus": "<p class='center-content'>Is this a smile?</p><p class='center-content'><img src='img/Dmonte_Reward.jpg' height='410' width='730'></img></p>", "expr": "reward", "time_elapsed": 26334, "internal_node_id": "0.0-1.0-19.0", "key_press": 81, "trial_index": 20, "gend": "male", "condition": 1}, {"rt": 740, "trial_type": "single-stim", "name": "Jessica", "stimulus": "<p class='center-content'>Is this a smile?</p><p class='center-content'><img src='img/Jessica.jpg' height='410' width='730'></img></p>", "expr": "neutral", "time_elapsed": 27076, "internal_node_id": "0.0-1.0-20.0", "key_press": 81, "trial_index": 21, "gend": "female", "condition": 1}, {"rt": 839, "trial_type": "single-stim", "name": "Marcus", "stimulus": "<p class='center-content'>Is this a smile?</p><p class='center-content'><img src='img/Marcus_Affiliation.jpg' height='410' width='730'></img></p>", "expr": "affiliation", "time_elapsed": 27917, "internal_node_id": "0.0-1.0-21.0", "key_press": 81, "trial_index": 22, "gend": "male", "condition": 1}, {"rt": 885, "trial_type": "single-stim", "name": "Ashley", "stimulus": "<p class='center-content'>Is this a smile?</p><p class='center-content'><img src='img/Ashley_Reward.jpg' height='410' width='730'></img></p>", "expr": "reward", "time_elapsed": 28805, "internal_node_id": "0.0-1.0-22.0", "key_press": 81, "trial_index": 23, "gend": "female", "condition": 1}, {"rt": 959, "trial_type": "single-stim", "name": "Marcus", "stimulus": "<p class='center-content'>Is this a smile?</p><p class='center-content'><img src='img/Marcus.jpg' height='410' width='730'></img></p>", "expr": "neutral", "time_elapsed": 29768, "internal_node_id": "0.0-1.0-23.0", "key_press": 81, "trial_index": 24, "gend": "male", "condition": 1}, {"rt": 706, "trial_type": "single-stim", "name": "Mary", "stimulus": "<p class='center-content'>Is this a smile?</p><p class='center-content'><img src='img/Mary_Affiliation.jpg' height='410' width='730'></img></p>", "expr": "affiliation", "time_elapsed": 30477, "internal_node_id": "0.0-1.0-24.0", "key_press": 81, "trial_index": 25, "gend": "female", "condition": 1}, {"rt": 638, "trial_type": "single-stim", "name": "Mary", "stimulus": "<p class='center-content'>Is this a smile?</p><p class='center-content'><img src='img/Mary_Dominance.jpg' height='410' width='730'></img></p>", "expr": "dominance", "time_elapsed": 31118, "internal_node_id": "0.0-1.0-25.0", "key_press": 81, "trial_index": 26, "gend": "female", "condition": 1}, {"rt": 600, "trial_type": "single-stim", "name": "Joeseph", "stimulus": "<p class='center-content'>Is this a smile?</p><p class='center-content'><img src='img/Joeseph_Affiliation.jpg' height='410' width='730'></img></p>", "expr": "affiliation", "time_elapsed": 31721, "internal_node_id": "0.0-1.0-26.0", "key_press": 81, "trial_index": 27, "gend": "male", "condition": 1}, {"rt": 613, "trial_type": "single-stim", "name": "Jourdan", "stimulus": "<p class='center-content'>Is this a smile?</p><p class='center-content'><img src='img/Jourdan.jpg' height='410' width='730'></img></p>", "expr": "neutral", "time_elapsed": 32337, "internal_node_id": "0.0-1.0-27.0", "key_press": 80, "trial_index": 28, "gend": "male", "condition": 1}, {"rt": 586, "trial_type": "single-stim", "name": "Zach", "stimulus": "<p class='center-content'>Is this a smile?</p><p class='center-content'><img src='img/Zach_Disgust.jpg' height='410' width='730'></img></p>", "expr": "disgust", "time_elapsed": 32925, "internal_node_id": "0.0-1.0-28.0", "key_press": 80, "trial_index": 29, "gend": "male", "condition": 1}, {"rt": 632, "trial_type": "single-stim", "name": "Anthony", "stimulus": "<p class='center-content'>Is this a smile?</p><p class='center-content'><img src='img/Anthony_Disgust.jpg' height='410' width='730'></img></p>", "expr": "disgust", "time_elapsed": 33561, "internal_node_id": "0.0-1.0-29.0", "key_press": 80, "trial_index": 30, "gend": "male", "condition": 1}, {"rt": 1152, "trial_type": "single-stim", "name": "Jourdan", "stimulus": "<p class='center-content'>Is this a smile?</p><p class='center-content'><img src='img/Jourdan_Affiliation.jpg' height='410' width='730'></img></p>", "expr": "affiliation", "time_elapsed": 34715, "internal_node_id": "0.0-1.0-30.0", "key_press": 80, "trial_index": 31, "gend": "male", "condition": 1}, {"rt": 739, "trial_type": "single-stim", "name": "Andrew", "stimulus": "<p class='center-content'>Is this a smile?</p><p class='center-content'><img src='img/Andrew_Reward.jpg' height='410' width='730'></img></p>", "expr": "reward", "time_elapsed": 35457, "internal_node_id": "0.0-1.0-31.0", "key_press": 81, "trial_index": 32, "gend": "male", "condition": 1}, {"rt": 1062, "trial_type": "single-stim", "name": "Mary", "stimulus": "<p class='center-content'>Is this a smile?</p><p class='center-content'><img src='img/Mary.jpg' height='410' width='730'></img></p>", "expr": "neutral", "time_elapsed": 36521, "internal_node_id": "0.0-1.0-32.0", "key_press": 80, "trial_index": 33, "gend": "female", "condition": 1}, {"rt": 712, "trial_type": "single-stim", "name": "Maurice", "stimulus": "<p class='center-content'>Is this a smile?</p><p class='center-content'><img src='img/Maurice.jpg' height='410' width='730'></img></p>", "expr": "neutral", "time_elapsed": 37236, "internal_node_id": "0.0-1.0-33.0", "key_press": 80, "trial_index": 34, "gend": "male", "condition": 1}, {"rt": 1141, "trial_type": "single-stim", "name": "Lulu", "stimulus": "<p class='center-content'>Is this a smile?</p><p class='center-content'><img src='img/Lulu_Affiliation.jpg' height='410' width='730'></img></p>", "expr": "affiliation", "time_elapsed": 38380, "internal_node_id": "0.0-1.0-34.0", "key_press": 81, "trial_index": 35, "gend": "female", "condition": 1}, {"rt": 769, "trial_type": "single-stim", "name": "Marcus", "stimulus": "<p class='center-content'>Is this a smile?</p><p class='center-content'><img src='img/Marcus_Disgust.jpg' height='410' width='730'></img></p>", "expr": "disgust", "time_elapsed": 39152, "internal_node_id": "0.0-1.0-35.0", "key_press": 80, "trial_index": 36, "gend": "male", "condition": 1}, {"rt": 706, "trial_type": "single-stim", "name": "Jessica", "stimulus": "<p class='center-content'>Is this a smile?</p><p class='center-content'><img src='img/Jessica_Affiliation.jpg' height='410' width='730'></img></p>", "expr": "affiliation", "time_elapsed": 39861, "internal_node_id": "0.0-1.0-36.0", "key_press": 81, "trial_index": 37, "gend": "female", "condition": 1}, {"rt": 761, "trial_type": "single-stim", "name": "Dmonte", "stimulus": "<p class='center-content'>Is this a smile?</p><p class='center-content'><img src='img/Dmonte_Affiliation.jpg' height='410' width='730'></img></p>", "expr": "affiliation", "time_elapsed": 40625, "internal_node_id": "0.0-1.0-37.0", "key_press": 81, "trial_index": 38, "gend": "male", "condition": 1}, {"rt": 1247, "trial_type": "single-stim", "name": "Maurice", "stimulus": "<p class='center-content'>Is this a smile?</p><p class='center-content'><img src='img/Maurice_Affiliation.jpg' height='410' width='730'></img></p>", "expr": "affiliation", "time_elapsed": 41876, "internal_node_id": "0.0-1.0-38.0", "key_press": 81, "trial_index": 39, "gend": "male", "condition": 1}, {"rt": 986, "trial_type": "single-stim", "name": "Anna", "stimulus": "<p class='center-content'>Is this a smile?</p><p class='center-content'><img src='img/Anna.jpg' height='410' width='730'></img></p>", "expr": "neutral", "time_elapsed": 42865, "internal_node_id": "0.0-1.0-39.0", "key_press": 80, "trial_index": 40, "gend": "female", "condition": 1}, {"rt": 820, "trial_type": "single-stim", "name": "Marcus", "stimulus": "<p class='center-content'>Is this a smile?</p><p class='center-content'><img src='img/Marcus_Reward.jpg' height='410' width='730'></img></p>", "expr": "reward", "time_elapsed": 43687, "internal_node_id": "0.0-1.0-40.0", "key_press": 81, "trial_index": 41, "gend": "male", "condition": 1}, {"rt": 793, "trial_type": "single-stim", "name": "Anna", "stimulus": "<p class='center-content'>Is this a smile?</p><p class='center-content'><img src='img/Anna_Affiliation.jpg' height='410' width='730'></img></p>", "expr": "affiliation", "time_elapsed": 44484, "internal_node_id": "0.0-1.0-41.0", "key_press": 81, "trial_index": 42, "gend": "female", "condition": 1}, {"rt": 1130, "trial_type": "single-stim", "name": "Joeseph", "stimulus": "<p class='center-content'>Is this a smile?</p><p class='center-content'><img src='img/Joeseph_Dominance.jpg' height='410' width='730'></img></p>", "expr": "dominance", "time_elapsed": 45617, "internal_node_id": "0.0-1.0-42.0", "key_press": 80, "trial_index": 43, "gend": "male", "condition": 1}, {"rt": 1024, "trial_type": "single-stim", "name": "KJ", "stimulus": "<p class='center-content'>Is this a smile?</p><p class='center-content'><img src='img/KJ_Reward.jpg' height='410' width='730'></img></p>", "expr": "reward", "time_elapsed": 46644, "internal_node_id": "0.0-1.0-43.0", "key_press": 81, "trial_index": 44, "gend": "female", "condition": 1}, {"rt": 1082, "trial_type": "single-stim", "name": "Anna", "stimulus": "<p class='center-content'>Is this a smile?</p><p class='center-content'><img src='img/Anna_Dominance.jpg' height='410' width='730'></img></p>", "expr": "dominance", "time_elapsed": 47729, "internal_node_id": "0.0-1.0-44.0", "key_press": 81, "trial_index": 45, "gend": "female", "condition": 1}, {"rt": 865, "trial_type": "single-stim", "name": "Joeseph", "stimulus": "<p class='center-content'>Is this a smile?</p><p class='center-content'><img src='img/Joeseph.jpg' height='410' width='730'></img></p>", "expr": "neutral", "time_elapsed": 48597, "internal_node_id": "0.0-1.0-45.0", "key_press": 80, "trial_index": 46, "gend": "male", "condition": 1}, {"rt": 995, "trial_type": "single-stim", "name": "Anthony", "stimulus": "<p class='center-content'>Is this a smile?</p><p class='center-content'><img src='img/Anthony_Affiliation.jpg' height='410' width='730'></img></p>", "expr": "affiliation", "time_elapsed": 49594, "internal_node_id": "0.0-1.0-46.0", "key_press": 81, "trial_index": 47, "gend": "male", "condition": 1}, {"rt": 867, "trial_type": "single-stim", "name": "Anna", "stimulus": "<p class='center-content'>Is this a smile?</p><p class='center-content'><img src='img/Anna_Disgust.jpg' height='410' width='730'></img></p>", "expr": "disgust", "time_elapsed": 50465, "internal_node_id": "0.0-1.0-47.0", "key_press": 80, "trial_index": 48, "gend": "female", "condition": 1}, {"rt": 839, "trial_type": "single-stim", "name": "Joeseph", "stimulus": "<p class='center-content'>Is this a smile?</p><p class='center-content'><img src='img/Joeseph_Reward.jpg' height='410' width='730'></img></p>", "expr": "reward", "time_elapsed": 51308, "internal_node_id": "0.0-1.0-48.0", "key_press": 81, "trial_index": 49, "gend": "male", "condition": 1}, {"rt": 907, "trial_type": "single-stim", "name": "Naomi", "stimulus": "<p class='center-content'>Is this a smile?</p><p class='center-content'><img src='img/Naomi_Reward.jpg' height='410' width='730'></img></p>", "expr": "reward", "time_elapsed": 52216, "internal_node_id": "0.0-1.0-49.0", "key_press": 81, "trial_index": 50, "gend": "female", "condition": 1}, {"rt": 809, "trial_type": "single-stim", "name": "Maurice", "stimulus": "<p class='center-content'>Is this a smile?</p><p class='center-content'><img src='img/Maurice_Disgust.jpg' height='410' width='730'></img></p>", "expr": "disgust", "time_elapsed": 53028, "internal_node_id": "0.0-1.0-50.0", "key_press": 80, "trial_index": 51, "gend": "male", "condition": 1}, {"rt": 1368, "trial_type": "single-stim", "name": "Jourdan", "stimulus": "<p class='center-content'>Is this a smile?</p><p class='center-content'><img src='img/Jourdan_Disgust.jpg' height='410' width='730'></img></p>", "expr": "disgust", "time_elapsed": 54400, "internal_node_id": "0.0-1.0-51.0", "key_press": 80, "trial_index": 52, "gend": "male", "condition": 1}, {"rt": 1007, "trial_type": "single-stim", "name": "Anthony", "stimulus": "<p class='center-content'>Is this a smile?</p><p class='center-content'><img src='img/Anthony.jpg' height='410' width='730'></img></p>", "expr": "neutral", "time_elapsed": 55410, "internal_node_id": "0.0-1.0-52.0", "key_press": 80, "trial_index": 53, "gend": "male", "condition": 1}, {"rt": 919, "trial_type": "single-stim", "name": "Naomi", "stimulus": "<p class='center-content'>Is this a smile?</p><p class='center-content'><img src='img/Naomi.jpg' height='410' width='730'></img></p>", "expr": "neutral", "time_elapsed": 56331, "internal_node_id": "0.0-1.0-53.0", "key_press": 80, "trial_index": 54, "gend": "female", "condition": 1}, {"rt": 1388, "trial_type": "single-stim", "name": "Dmonte", "stimulus": "<p class='center-content'>Is this a smile?</p><p class='center-content'><img src='img/Dmonte_Dominance.jpg' height='410' width='730'></img></p>", "expr": "dominance", "time_elapsed": 57723, "internal_node_id": "0.0-1.0-54.0", "key_press": 81, "trial_index": 55, "gend": "male", "condition": 1}, {"rt": 1205, "trial_type": "single-stim", "name": "Naomi", "stimulus": "<p class='center-content'>Is this a smile?</p><p class='center-content'><img src='img/Naomi_Affiliation.jpg' height='410' width='730'></img></p>", "expr": "affiliation", "time_elapsed": 58931, "internal_node_id": "0.0-1.0-55.0", "key_press": 81, "trial_index": 56, "gend": "female", "condition": 1}, {"rt": 756, "trial_type": "single-stim", "name": "Andrew", "stimulus": "<p class='center-content'>Is this a smile?</p><p class='center-content'><img src='img/Andrew_Disgust.jpg' height='410' width='730'></img></p>", "expr": "disgust", "time_elapsed": 59689, "internal_node_id": "0.0-1.0-56.0", "key_press": 80, "trial_index": 57, "gend": "male", "condition": 1}, {"rt": 1341, "trial_type": "single-stim", "name": "Andrew", "stimulus": "<p class='center-content'>Is this a smile?</p><p class='center-content'><img src='img/Andrew_Dominance.jpg' height='410' width='730'></img></p>", "expr": "dominance", "time_elapsed": 61033, "internal_node_id": "0.0-1.0-57.0", "key_press": 81, "trial_index": 58, "gend": "male", "condition": 1}, {"rt": 1315, "trial_type": "single-stim", "name": "KJ", "stimulus": "<p class='center-content'>Is this a smile?</p><p class='center-content'><img src='img/KJ.jpg' height='410' width='730'></img></p>", "expr": "neutral", "time_elapsed": 62351, "internal_node_id": "0.0-1.0-58.0", "key_press": 80, "trial_index": 59, "gend": "female", "condition": 1}, {"rt": 1234, "trial_type": "single-stim", "name": "KJ", "stimulus": "<p class='center-content'>Is this a smile?</p><p class='center-content'><img src='img/KJ_Disgust.jpg' height='410' width='730'></img></p>", "expr": "disgust", "time_elapsed": 63588, "internal_node_id": "0.0-1.0-59.0", "key_press": 80, "trial_index": 60, "gend": "female", "condition": 1}, {"rt": 982, "trial_type": "single-stim", "name": "Jessica", "stimulus": "<p class='center-content'>Is this a smile?</p><p class='center-content'><img src='img/Jessica_Dominance.jpg' height='410' width='730'></img></p>", "expr": "dominance", "time_elapsed": 64573, "internal_node_id": "0.0-1.0-60.0", "key_press": 81, "trial_index": 61, "gend": "female", "condition": 1}, {"rt": 945, "trial_type": "single-stim", "name": "Zach", "stimulus": "<p class='center-content'>Is this a smile?</p><p class='center-content'><img src='img/Zach_Dominance.jpg' height='410' width='730'></img></p>", "expr": "dominance", "time_elapsed": 65522, "internal_node_id": "0.0-1.0-61.0", "key_press": 81, "trial_index": 62, "gend": "male", "condition": 1}, {"rt": 745, "trial_type": "single-stim", "name": "Jessica", "stimulus": "<p class='center-content'>Is this a smile?</p><p class='center-content'><img src='img/Jessica_Disgust.jpg' height='410' width='730'></img></p>", "expr": "disgust", "time_elapsed": 66270, "internal_node_id": "0.0-1.0-62.0", "key_press": 81, "trial_index": 63, "gend": "female", "condition": 1}, {"rt": 952, "trial_type": "single-stim", "name": "Naomi", "stimulus": "<p class='center-content'>Is this a smile?</p><p class='center-content'><img src='img/Naomi_Dominance.jpg' height='410' width='730'></img></p>", "expr": "dominance", "time_elapsed": 67224, "internal_node_id": "0.0-1.0-63.0", "key_press": 80, "trial_index": 64, "gend": "female", "condition": 1}, {"rt": 965, "trial_type": "single-stim", "name": "Anthony", "stimulus": "<p class='center-content'>Is this a smile?</p><p class='center-content'><img src='img/Anthony_Dominance.jpg' height='410' width='730'></img></p>", "expr": "dominance", "time_elapsed": 68192, "internal_node_id": "0.0-1.0-64.0", "key_press": 81, "trial_index": 65, "gend": "male", "condition": 1}, {"rt": 703, "trial_type": "single-stim", "name": "KJ", "stimulus": "<p class='center-content'>Is this a smile?</p><p class='center-content'><img src='img/KJ_Affiliation.jpg' height='410' width='730'></img></p>", "expr": "affiliation", "time_elapsed": 68897, "internal_node_id": "0.0-1.0-65.0", "key_press": 81, "trial_index": 66, "gend": "female", "condition": 1}, {"rt": 790, "trial_type": "single-stim", "name": "Anthony", "stimulus": "<p class='center-content'>Is this a smile?</p><p class='center-content'><img src='img/Anthony_Reward.jpg' height='410' width='730'></img></p>", "expr": "reward", "time_elapsed": 69691, "internal_node_id": "0.0-1.0-66.0", "key_press": 81, "trial_index": 67, "gend": "male", "condition": 1}, {"rt": 898, "trial_type": "single-stim", "name": "Marcus", "stimulus": "<p class='center-content'>Is this a smile?</p><p class='center-content'><img src='img/Marcus_Dominance.jpg' height='410' width='730'></img></p>", "expr": "dominance", "time_elapsed": 70593, "internal_node_id": "0.0-1.0-67.0", "key_press": 81, "trial_index": 68, "gend": "male", "condition": 1}, {"rt": 848, "trial_type": "single-stim", "name": "Joeseph", "stimulus": "<p class='center-content'>Is this a smile?</p><p class='center-content'><img src='img/Joeseph_Disgust.jpg' height='410' width='730'></img></p>", "expr": "disgust", "time_elapsed": 71444, "internal_node_id": "0.0-1.0-68.0", "key_press": 80, "trial_index": 69, "gend": "male", "condition": 1}, {"rt": 834, "trial_type": "single-stim", "name": "Andrew", "stimulus": "<p class='center-content'>Is this a smile?</p><p class='center-content'><img src='img/Andrew_Affiliation.jpg' height='410' width='730'></img></p>", "expr": "affiliation", "time_elapsed": 72282, "internal_node_id": "0.0-1.0-69.0", "key_press": 81, "trial_index": 70, "gend": "male", "condition": 1}, {"rt": 1426, "trial_type": "single-stim", "name": "Zach", "stimulus": "<p class='center-content'>Is this a smile?</p><p class='center-content'><img src='img/Zach.jpg' height='410' width='730'></img></p>", "expr": "neutral", "time_elapsed": 73711, "internal_node_id": "0.0-1.0-70.0", "key_press": 80, "trial_index": 71, "gend": "male", "condition": 1}, {"rt": 798, "trial_type": "single-stim", "name": "Jourdan", "stimulus": "<p class='center-content'>Is this a smile?</p><p class='center-content'><img src='img/Jourdan_Reward.jpg' height='410' width='730'></img></p>", "expr": "reward", "time_elapsed": 74512, "internal_node_id": "0.0-1.0-71.0", "key_press": 81, "trial_index": 72, "gend": "male", "condition": 1}, {"rt": 755, "trial_type": "single-stim", "name": "KJ", "stimulus": "<p class='center-content'>Is this a smile?</p><p class='center-content'><img src='img/KJ_Dominance.jpg' height='410' width='730'></img></p>", "expr": "dominance", "time_elapsed": 75271, "internal_node_id": "0.0-1.0-72.0", "key_press": 81, "trial_index": 73, "gend": "female", "condition": 1}, {"rt": 1064, "trial_type": "single-stim", "name": "Ashley", "stimulus": "<p class='center-content'>Is this a smile?</p><p class='center-content'><img src='img/Ashley_Dominance.jpg' height='410' width='730'></img></p>", "expr": "dominance", "time_elapsed": 76338, "internal_node_id": "0.0-1.0-73.0", "key_press": 81, "trial_index": 74, "gend": "female", "condition": 1}, {"rt": 852, "trial_type": "single-stim", "name": "Maurice", "stimulus": "<p class='center-content'>Is this a smile?</p><p class='center-content'><img src='img/Maurice_Dominance.jpg' height='410' width='730'></img></p>", "expr": "dominance", "time_elapsed": 77192, "internal_node_id": "0.0-1.0-74.0", "key_press": 81, "trial_index": 75, "gend": "male", "condition": 1}, {"rt": 9040, "trial_type": "survey-multi-choice", "responses": "{\"Q0\":\"Male\",\"Q1\":\"White/Caucasian/European American\",\"Q2\":\"Right\"}", "time_elapsed": 86256, "internal_node_id": "0.0-2.0", "trial_index": 76}, {"rt": 4173, "trial_type": "survey-text", "responses": "{\"Q0\":\"no\"}", "time_elapsed": 91433, "internal_node_id": "0.0-3.0", "trial_index": 77}, {"rt": 3730, "trial_type": "text", "time_elapsed": 96166, "internal_node_id": "0.0-4.0", "key_press": 32, "trial_index": 78}]}, "AcceptTime": "2017-12-05T21:21:32Z", "HITId": "37VUR2VJ6APR51HG1JCY17VY94IC1B", "Assignment": "", "AssignmentStatus": "Approved", "SubmitTime": "2017-12-05T21:24:29Z"}