{"ApprovalTime": "2017-12-05T18:05:18Z", "AutoApprovalTime": "2017-12-05T18:05:06Z", "AssignmentId": "3IXQG4FA2TYT7LQYHZ0XUD3OUGHB9H", "WorkerId": "anon27", "answers": {"data": [{"rt": 6944, "trial_type": "text", "time_elapsed": 6947, "internal_node_id": "0.0-0.0", "key_press": 32, "trial_index": 0}, {"rt": 11634, "trial_type": "single-stim", "name": "Jourdan", "stimulus": "<p class='center-content'>Is this a smile?</p><p class='center-content'><img src='img/Jourdan_Disgust.jpg' height='410' width='730'></img></p>", "expr": "disgust", "time_elapsed": 20586, "internal_node_id": "0.0-1.0-0.0", "key_press": 80, "trial_index": 1, "gend": "male", "condition": 1}, {"rt": 1558, "trial_type": "single-stim", "name": "Andrew", "stimulus": "<p class='center-content'>Is this a smile?</p><p class='center-content'><img src='img/Andrew_Affiliation.jpg' height='410' width='730'></img></p>", "expr": "affiliation", "time_elapsed": 22153, "internal_node_id": "0.0-1.0-1.0", "key_press": 81, "trial_index": 2, "gend": "male", "condition": 1}, {"rt": 781, "trial_type": "single-stim", "name": "Anthony", "stimulus": "<p class='center-content'>Is this a smile?</p><p class='center-content'><img src='img/Anthony_Reward.jpg' height='410' width='730'></img></p>", "expr": "reward", "time_elapsed": 22937, "internal_node_id": "0.0-1.0-2.0", "key_press": 81, "trial_index": 3, "gend": "male", "condition": 1}, {"rt": 612, "trial_type": "single-stim", "name": "Marcus", "stimulus": "<p class='center-content'>Is this a smile?</p><p class='center-content'><img src='img/Marcus_Reward.jpg' height='410' width='730'></img></p>", "expr": "reward", "time_elapsed": 23552, "internal_node_id": "0.0-1.0-3.0", "key_press": 81, "trial_index": 4, "gend": "male", "condition": 1}, {"rt": 1701, "trial_type": "single-stim", "name": "Joeseph", "stimulus": "<p class='center-content'>Is this a smile?</p><p class='center-content'><img src='img/Joeseph_Dominance.jpg' height='410' width='730'></img></p>", "expr": "dominance", "time_elapsed": 25257, "internal_node_id": "0.0-1.0-4.0", "key_press": 81, "trial_index": 5, "gend": "male", "condition": 1}, {"rt": 845, "trial_type": "single-stim", "name": "Maurice", "stimulus": "<p class='center-content'>Is this a smile?</p><p class='center-content'><img src='img/Maurice_Dominance.jpg' height='410' width='730'></img></p>", "expr": "dominance", "time_elapsed": 26105, "internal_node_id": "0.0-1.0-5.0", "key_press": 81, "trial_index": 6, "gend": "male", "condition": 1}, {"rt": 851, "trial_type": "single-stim", "name": "Lulu", "stimulus": "<p class='center-content'>Is this a smile?</p><p class='center-content'><img src='img/Lulu_Disgust.jpg' height='410' width='730'></img></p>", "expr": "disgust", "time_elapsed": 26960, "internal_node_id": "0.0-1.0-6.0", "key_press": 80, "trial_index": 7, "gend": "female", "condition": 1}, {"rt": 82, "trial_type": "single-stim", "name": "Anna", "stimulus": "<p class='center-content'>Is this a smile?</p><p class='center-content'><img src='img/Anna_Dominance.jpg' height='410' width='730'></img></p>", "expr": "dominance", "time_elapsed": 27044, "internal_node_id": "0.0-1.0-7.0", "key_press": 80, "trial_index": 8, "gend": "female", "condition": 1}, {"rt": 850, "trial_type": "single-stim", "name": "KJ", "stimulus": "<p class='center-content'>Is this a smile?</p><p class='center-content'><img src='img/KJ_Reward.jpg' height='410' width='730'></img></p>", "expr": "reward", "time_elapsed": 27897, "internal_node_id": "0.0-1.0-8.0", "key_press": 81, "trial_index": 9, "gend": "female", "condition": 1}, {"rt": 2316, "trial_type": "single-stim", "name": "Jourdan", "stimulus": "<p class='center-content'>Is this a smile?</p><p class='center-content'><img src='img/Jourdan_Dominance.jpg' height='410' width='730'></img></p>", "expr": "dominance", "time_elapsed": 30216, "internal_node_id": "0.0-1.0-9.0", "key_press": 81, "trial_index": 10, "gend": "male", "condition": 1}, {"rt": 1018, "trial_type": "single-stim", "name": "Zach", "stimulus": "<p class='center-content'>Is this a smile?</p><p class='center-content'><img src='img/Zach_Dominance.jpg' height='410' width='730'></img></p>", "expr": "dominance", "time_elapsed": 31237, "internal_node_id": "0.0-1.0-10.0", "key_press": 81, "trial_index": 11, "gend": "male", "condition": 1}, {"rt": 681, "trial_type": "single-stim", "name": "Joeseph", "stimulus": "<p class='center-content'>Is this a smile?</p><p class='center-content'><img src='img/Joeseph_Reward.jpg' height='410' width='730'></img></p>", "expr": "reward", "time_elapsed": 31920, "internal_node_id": "0.0-1.0-11.0", "key_press": 81, "trial_index": 12, "gend": "male", "condition": 1}, {"rt": 597, "trial_type": "single-stim", "name": "Jourdan", "stimulus": "<p class='center-content'>Is this a smile?</p><p class='center-content'><img src='img/Jourdan_Reward.jpg' height='410' width='730'></img></p>", "expr": "reward", "time_elapsed": 32520, "internal_node_id": "0.0-1.0-12.0", "key_press": 81, "trial_index": 13, "gend": "male", "condition": 1}, {"rt": 1204, "trial_type": "single-stim", "name": "KJ", "stimulus": "<p class='center-content'>Is this a smile?</p><p class='center-content'><img src='img/KJ_Affiliation.jpg' height='410' width='730'></img></p>", "expr": "affiliation", "time_elapsed": 33728, "internal_node_id": "0.0-1.0-13.0", "key_press": 81, "trial_index": 14, "gend": "female", "condition": 1}, {"rt": 1245, "trial_type": "single-stim", "name": "Joeseph", "stimulus": "<p class='center-content'>Is this a smile?</p><p class='center-content'><img src='img/Joeseph_Disgust.jpg' height='410' width='730'></img></p>", "expr": "disgust", "time_elapsed": 34976, "internal_node_id": "0.0-1.0-14.0", "key_press": 80, "trial_index": 15, "gend": "male", "condition": 1}, {"rt": 1262, "trial_type": "single-stim", "name": "Anna", "stimulus": "<p class='center-content'>Is this a smile?</p><p class='center-content'><img src='img/Anna_Affiliation.jpg' height='410' width='730'></img></p>", "expr": "affiliation", "time_elapsed": 36240, "internal_node_id": "0.0-1.0-15.0", "key_press": 81, "trial_index": 16, "gend": "female", "condition": 1}, {"rt": 772, "trial_type": "single-stim", "name": "Jessica", "stimulus": "<p class='center-content'>Is this a smile?</p><p class='center-content'><img src='img/Jessica_Affiliation.jpg' height='410' width='730'></img></p>", "expr": "affiliation", "time_elapsed": 37015, "internal_node_id": "0.0-1.0-16.0", "key_press": 81, "trial_index": 17, "gend": "female", "condition": 1}, {"rt": 826, "trial_type": "single-stim", "name": "Anna", "stimulus": "<p class='center-content'>Is this a smile?</p><p class='center-content'><img src='img/Anna_Disgust.jpg' height='410' width='730'></img></p>", "expr": "disgust", "time_elapsed": 37848, "internal_node_id": "0.0-1.0-17.0", "key_press": 80, "trial_index": 18, "gend": "female", "condition": 1}, {"rt": 1469, "trial_type": "single-stim", "name": "Dmonte", "stimulus": "<p class='center-content'>Is this a smile?</p><p class='center-content'><img src='img/Dmonte_Disgust.jpg' height='410' width='730'></img></p>", "expr": "disgust", "time_elapsed": 39320, "internal_node_id": "0.0-1.0-18.0", "key_press": 80, "trial_index": 19, "gend": "male", "condition": 1}, {"rt": 798, "trial_type": "single-stim", "name": "Jessica", "stimulus": "<p class='center-content'>Is this a smile?</p><p class='center-content'><img src='img/Jessica_Disgust.jpg' height='410' width='730'></img></p>", "expr": "disgust", "time_elapsed": 40120, "internal_node_id": "0.0-1.0-19.0", "key_press": 80, "trial_index": 20, "gend": "female", "condition": 1}, {"rt": 917, "trial_type": "single-stim", "name": "Anthony", "stimulus": "<p class='center-content'>Is this a smile?</p><p class='center-content'><img src='img/Anthony_Affiliation.jpg' height='410' width='730'></img></p>", "expr": "affiliation", "time_elapsed": 41040, "internal_node_id": "0.0-1.0-20.0", "key_press": 81, "trial_index": 21, "gend": "male", "condition": 1}, {"rt": 746, "trial_type": "single-stim", "name": "KJ", "stimulus": "<p class='center-content'>Is this a smile?</p><p class='center-content'><img src='img/KJ_Disgust.jpg' height='410' width='730'></img></p>", "expr": "disgust", "time_elapsed": 41792, "internal_node_id": "0.0-1.0-21.0", "key_press": 80, "trial_index": 22, "gend": "female", "condition": 1}, {"rt": 765, "trial_type": "single-stim", "name": "Joeseph", "stimulus": "<p class='center-content'>Is this a smile?</p><p class='center-content'><img src='img/Joeseph_Affiliation.jpg' height='410' width='730'></img></p>", "expr": "affiliation", "time_elapsed": 42560, "internal_node_id": "0.0-1.0-22.0", "key_press": 81, "trial_index": 23, "gend": "male", "condition": 1}, {"rt": 1216, "trial_type": "single-stim", "name": "Marcus", "stimulus": "<p class='center-content'>Is this a smile?</p><p class='center-content'><img src='img/Marcus_Dominance.jpg' height='410' width='730'></img></p>", "expr": "dominance", "time_elapsed": 43778, "internal_node_id": "0.0-1.0-23.0", "key_press": 80, "trial_index": 24, "gend": "male", "condition": 1}, {"rt": 659, "trial_type": "single-stim", "name": "Anna", "stimulus": "<p class='center-content'>Is this a smile?</p><p class='center-content'><img src='img/Anna_Reward.jpg' height='410' width='730'></img></p>", "expr": "reward", "time_elapsed": 44440, "internal_node_id": "0.0-1.0-24.0", "key_press": 81, "trial_index": 25, "gend": "female", "condition": 1}, {"rt": 1765, "trial_type": "single-stim", "name": "Jessica", "stimulus": "<p class='center-content'>Is this a smile?</p><p class='center-content'><img src='img/Jessica.jpg' height='410' width='730'></img></p>", "expr": "neutral", "time_elapsed": 46208, "internal_node_id": "0.0-1.0-25.0", "key_press": 80, "trial_index": 26, "gend": "female", "condition": 1}, {"rt": 885, "trial_type": "single-stim", "name": "Mary", "stimulus": "<p class='center-content'>Is this a smile?</p><p class='center-content'><img src='img/Mary_Reward.jpg' height='410' width='730'></img></p>", "expr": "reward", "time_elapsed": 47096, "internal_node_id": "0.0-1.0-26.0", "key_press": 81, "trial_index": 27, "gend": "female", "condition": 1}, {"rt": 2221, "trial_type": "single-stim", "name": "Lulu", "stimulus": "<p class='center-content'>Is this a smile?</p><p class='center-content'><img src='img/Lulu_Dominance.jpg' height='410' width='730'></img></p>", "expr": "dominance", "time_elapsed": 49320, "internal_node_id": "0.0-1.0-27.0", "key_press": 81, "trial_index": 28, "gend": "female", "condition": 1}, {"rt": 1405, "trial_type": "single-stim", "name": "Andrew", "stimulus": "<p class='center-content'>Is this a smile?</p><p class='center-content'><img src='img/Andrew_Dominance.jpg' height='410' width='730'></img></p>", "expr": "dominance", "time_elapsed": 50728, "internal_node_id": "0.0-1.0-28.0", "key_press": 81, "trial_index": 29, "gend": "male", "condition": 1}, {"rt": 573, "trial_type": "single-stim", "name": "Naomi", "stimulus": "<p class='center-content'>Is this a smile?</p><p class='center-content'><img src='img/Naomi_Reward.jpg' height='410' width='730'></img></p>", "expr": "reward", "time_elapsed": 51304, "internal_node_id": "0.0-1.0-29.0", "key_press": 81, "trial_index": 30, "gend": "female", "condition": 1}, {"rt": 1009, "trial_type": "single-stim", "name": "Ashley", "stimulus": "<p class='center-content'>Is this a smile?</p><p class='center-content'><img src='img/Ashley_Disgust.jpg' height='410' width='730'></img></p>", "expr": "disgust", "time_elapsed": 52316, "internal_node_id": "0.0-1.0-30.0", "key_press": 80, "trial_index": 31, "gend": "female", "condition": 1}, {"rt": 717, "trial_type": "single-stim", "name": "Jessica", "stimulus": "<p class='center-content'>Is this a smile?</p><p class='center-content'><img src='img/Jessica_Dominance.jpg' height='410' width='730'></img></p>", "expr": "dominance", "time_elapsed": 53040, "internal_node_id": "0.0-1.0-31.0", "key_press": 81, "trial_index": 32, "gend": "female", "condition": 1}, {"rt": 1197, "trial_type": "single-stim", "name": "Ashley", "stimulus": "<p class='center-content'>Is this a smile?</p><p class='center-content'><img src='img/Ashley_Reward.jpg' height='410' width='730'></img></p>", "expr": "reward", "time_elapsed": 54240, "internal_node_id": "0.0-1.0-32.0", "key_press": 81, "trial_index": 33, "gend": "female", "condition": 1}, {"rt": 1004, "trial_type": "single-stim", "name": "KJ", "stimulus": "<p class='center-content'>Is this a smile?</p><p class='center-content'><img src='img/KJ.jpg' height='410' width='730'></img></p>", "expr": "neutral", "time_elapsed": 55248, "internal_node_id": "0.0-1.0-33.0", "key_press": 80, "trial_index": 34, "gend": "female", "condition": 1}, {"rt": 581, "trial_type": "single-stim", "name": "Maurice", "stimulus": "<p class='center-content'>Is this a smile?</p><p class='center-content'><img src='img/Maurice_Reward.jpg' height='410' width='730'></img></p>", "expr": "reward", "time_elapsed": 55831, "internal_node_id": "0.0-1.0-34.0", "key_press": 81, "trial_index": 35, "gend": "male", "condition": 1}, {"rt": 727, "trial_type": "single-stim", "name": "Dmonte", "stimulus": "<p class='center-content'>Is this a smile?</p><p class='center-content'><img src='img/Dmonte_Affiliation.jpg' height='410' width='730'></img></p>", "expr": "affiliation", "time_elapsed": 56561, "internal_node_id": "0.0-1.0-35.0", "key_press": 81, "trial_index": 36, "gend": "male", "condition": 1}, {"rt": 707, "trial_type": "single-stim", "name": "Ashley", "stimulus": "<p class='center-content'>Is this a smile?</p><p class='center-content'><img src='img/Ashley_Dominance.jpg' height='410' width='730'></img></p>", "expr": "dominance", "time_elapsed": 57272, "internal_node_id": "0.0-1.0-36.0", "key_press": 81, "trial_index": 37, "gend": "female", "condition": 1}, {"rt": 4115, "trial_type": "single-stim", "name": "Anthony", "stimulus": "<p class='center-content'>Is this a smile?</p><p class='center-content'><img src='img/Anthony_Dominance.jpg' height='410' width='730'></img></p>", "expr": "dominance", "time_elapsed": 61391, "internal_node_id": "0.0-1.0-37.0", "key_press": 81, "trial_index": 38, "gend": "male", "condition": 1}, {"rt": 822, "trial_type": "single-stim", "name": "Lulu", "stimulus": "<p class='center-content'>Is this a smile?</p><p class='center-content'><img src='img/Lulu.jpg' height='410' width='730'></img></p>", "expr": "neutral", "time_elapsed": 62215, "internal_node_id": "0.0-1.0-38.0", "key_press": 80, "trial_index": 39, "gend": "female", "condition": 1}, {"rt": 1262, "trial_type": "single-stim", "name": "Marcus", "stimulus": "<p class='center-content'>Is this a smile?</p><p class='center-content'><img src='img/Marcus.jpg' height='410' width='730'></img></p>", "expr": "neutral", "time_elapsed": 63481, "internal_node_id": "0.0-1.0-39.0", "key_press": 80, "trial_index": 40, "gend": "male", "condition": 1}, {"rt": 972, "trial_type": "single-stim", "name": "Mary", "stimulus": "<p class='center-content'>Is this a smile?</p><p class='center-content'><img src='img/Mary_Dominance.jpg' height='410' width='730'></img></p>", "expr": "dominance", "time_elapsed": 64455, "internal_node_id": "0.0-1.0-40.0", "key_press": 81, "trial_index": 41, "gend": "female", "condition": 1}, {"rt": 26858, "trial_type": "single-stim", "name": "Andrew", "stimulus": "<p class='center-content'>Is this a smile?</p><p class='center-content'><img src='img/Andrew.jpg' height='410' width='730'></img></p>", "expr": "neutral", "time_elapsed": 91316, "internal_node_id": "0.0-1.0-41.0", "key_press": 81, "trial_index": 42, "gend": "male", "condition": 1}, {"rt": 2352, "trial_type": "single-stim", "name": "Naomi", "stimulus": "<p class='center-content'>Is this a smile?</p><p class='center-content'><img src='img/Naomi_DIsgust.jpg' height='410' width='730'></img></p>", "expr": "disgust", "time_elapsed": 93671, "internal_node_id": "0.0-1.0-42.0", "key_press": 80, "trial_index": 43, "gend": "female", "condition": 1}, {"rt": 7427, "trial_type": "single-stim", "name": "Naomi", "stimulus": "<p class='center-content'>Is this a smile?</p><p class='center-content'><img src='img/Naomi.jpg' height='410' width='730'></img></p>", "expr": "neutral", "time_elapsed": 101101, "internal_node_id": "0.0-1.0-43.0", "key_press": 80, "trial_index": 44, "gend": "female", "condition": 1}, {"rt": 1631, "trial_type": "single-stim", "name": "Naomi", "stimulus": "<p class='center-content'>Is this a smile?</p><p class='center-content'><img src='img/Naomi_Affiliation.jpg' height='410' width='730'></img></p>", "expr": "affiliation", "time_elapsed": 102734, "internal_node_id": "0.0-1.0-44.0", "key_press": 80, "trial_index": 45, "gend": "female", "condition": 1}, {"rt": 2235, "trial_type": "single-stim", "name": "Jourdan", "stimulus": "<p class='center-content'>Is this a smile?</p><p class='center-content'><img src='img/Jourdan_Affiliation.jpg' height='410' width='730'></img></p>", "expr": "affiliation", "time_elapsed": 104973, "internal_node_id": "0.0-1.0-45.0", "key_press": 81, "trial_index": 46, "gend": "male", "condition": 1}, {"rt": 12269, "trial_type": "single-stim", "name": "Ashley", "stimulus": "<p class='center-content'>Is this a smile?</p><p class='center-content'><img src='img/Ashley.jpg' height='410' width='730'></img></p>", "expr": "neutral", "time_elapsed": 117247, "internal_node_id": "0.0-1.0-46.0", "key_press": 80, "trial_index": 47, "gend": "female", "condition": 1}, {"rt": 1439, "trial_type": "single-stim", "name": "Ashley", "stimulus": "<p class='center-content'>Is this a smile?</p><p class='center-content'><img src='img/Ashley_Affiliation.jpg' height='410' width='730'></img></p>", "expr": "affiliation", "time_elapsed": 118690, "internal_node_id": "0.0-1.0-47.0", "key_press": 81, "trial_index": 48, "gend": "female", "condition": 1}, {"rt": 973, "trial_type": "single-stim", "name": "Andrew", "stimulus": "<p class='center-content'>Is this a smile?</p><p class='center-content'><img src='img/Andrew_Reward.jpg' height='410' width='730'></img></p>", "expr": "reward", "time_elapsed": 119665, "internal_node_id": "0.0-1.0-48.0", "key_press": 81, "trial_index": 49, "gend": "male", "condition": 1}, {"rt": 5800, "trial_type": "single-stim", "name": "Dmonte", "stimulus": "<p class='center-content'>Is this a smile?</p><p class='center-content'><img src='img/Dmonte_Dominance.jpg' height='410' width='730'></img></p>", "expr": "dominance", "time_elapsed": 125467, "internal_node_id": "0.0-1.0-49.0", "key_press": 80, "trial_index": 50, "gend": "male", "condition": 1}, {"rt": 877, "trial_type": "single-stim", "name": "Maurice", "stimulus": "<p class='center-content'>Is this a smile?</p><p class='center-content'><img src='img/Maurice_Disgust.jpg' height='410' width='730'></img></p>", "expr": "disgust", "time_elapsed": 126347, "internal_node_id": "0.0-1.0-50.0", "key_press": 80, "trial_index": 51, "gend": "male", "condition": 1}, {"rt": 1181, "trial_type": "single-stim", "name": "Mary", "stimulus": "<p class='center-content'>Is this a smile?</p><p class='center-content'><img src='img/Mary_Affiliation.jpg' height='410' width='730'></img></p>", "expr": "affiliation", "time_elapsed": 127531, "internal_node_id": "0.0-1.0-51.0", "key_press": 81, "trial_index": 52, "gend": "female", "condition": 1}, {"rt": 870, "trial_type": "single-stim", "name": "Anthony", "stimulus": "<p class='center-content'>Is this a smile?</p><p class='center-content'><img src='img/Anthony.jpg' height='410' width='730'></img></p>", "expr": "neutral", "time_elapsed": 128404, "internal_node_id": "0.0-1.0-52.0", "key_press": 80, "trial_index": 53, "gend": "male", "condition": 1}, {"rt": 733, "trial_type": "single-stim", "name": "Marcus", "stimulus": "<p class='center-content'>Is this a smile?</p><p class='center-content'><img src='img/Marcus_Disgust.jpg' height='410' width='730'></img></p>", "expr": "disgust", "time_elapsed": 129139, "internal_node_id": "0.0-1.0-53.0", "key_press": 80, "trial_index": 54, "gend": "male", "condition": 1}, {"rt": 605, "trial_type": "single-stim", "name": "KJ", "stimulus": "<p class='center-content'>Is this a smile?</p><p class='center-content'><img src='img/KJ_Dominance.jpg' height='410' width='730'></img></p>", "expr": "dominance", "time_elapsed": 129748, "internal_node_id": "0.0-1.0-54.0", "key_press": 81, "trial_index": 55, "gend": "female", "condition": 1}, {"rt": 901, "trial_type": "single-stim", "name": "Andrew", "stimulus": "<p class='center-content'>Is this a smile?</p><p class='center-content'><img src='img/Andrew_Disgust.jpg' height='410' width='730'></img></p>", "expr": "disgust", "time_elapsed": 130651, "internal_node_id": "0.0-1.0-55.0", "key_press": 80, "trial_index": 56, "gend": "male", "condition": 1}, {"rt": 1037, "trial_type": "single-stim", "name": "Naomi", "stimulus": "<p class='center-content'>Is this a smile?</p><p class='center-content'><img src='img/Naomi_Dominance.jpg' height='410' width='730'></img></p>", "expr": "dominance", "time_elapsed": 131691, "internal_node_id": "0.0-1.0-56.0", "key_press": 81, "trial_index": 57, "gend": "female", "condition": 1}, {"rt": 798, "trial_type": "single-stim", "name": "Maurice", "stimulus": "<p class='center-content'>Is this a smile?</p><p class='center-content'><img src='img/Maurice.jpg' height='410' width='730'></img></p>", "expr": "neutral", "time_elapsed": 132492, "internal_node_id": "0.0-1.0-57.0", "key_press": 80, "trial_index": 58, "gend": "male", "condition": 1}, {"rt": 677, "trial_type": "single-stim", "name": "Dmonte", "stimulus": "<p class='center-content'>Is this a smile?</p><p class='center-content'><img src='img/Dmonte_Reward.jpg' height='410' width='730'></img></p>", "expr": "reward", "time_elapsed": 133171, "internal_node_id": "0.0-1.0-58.0", "key_press": 81, "trial_index": 59, "gend": "male", "condition": 1}, {"rt": 741, "trial_type": "single-stim", "name": "Anna", "stimulus": "<p class='center-content'>Is this a smile?</p><p class='center-content'><img src='img/Anna.jpg' height='410' width='730'></img></p>", "expr": "neutral", "time_elapsed": 133915, "internal_node_id": "0.0-1.0-59.0", "key_press": 80, "trial_index": 60, "gend": "female", "condition": 1}, {"rt": 534, "trial_type": "single-stim", "name": "Jessica", "stimulus": "<p class='center-content'>Is this a smile?</p><p class='center-content'><img src='img/Jessica_Reward.jpg' height='410' width='730'></img></p>", "expr": "reward", "time_elapsed": 134452, "internal_node_id": "0.0-1.0-60.0", "key_press": 81, "trial_index": 61, "gend": "female", "condition": 1}, {"rt": 701, "trial_type": "single-stim", "name": "Joeseph", "stimulus": "<p class='center-content'>Is this a smile?</p><p class='center-content'><img src='img/Joeseph.jpg' height='410' width='730'></img></p>", "expr": "neutral", "time_elapsed": 135156, "internal_node_id": "0.0-1.0-61.0", "key_press": 80, "trial_index": 62, "gend": "male", "condition": 1}, {"rt": 643, "trial_type": "single-stim", "name": "Zach", "stimulus": "<p class='center-content'>Is this a smile?</p><p class='center-content'><img src='img/Zach_Disgust.jpg' height='410' width='730'></img></p>", "expr": "disgust", "time_elapsed": 135803, "internal_node_id": "0.0-1.0-62.0", "key_press": 80, "trial_index": 63, "gend": "male", "condition": 1}, {"rt": 589, "trial_type": "single-stim", "name": "Lulu", "stimulus": "<p class='center-content'>Is this a smile?</p><p class='center-content'><img src='img/Lulu_Reward.jpg' height='410' width='730'></img></p>", "expr": "reward", "time_elapsed": 136396, "internal_node_id": "0.0-1.0-63.0", "key_press": 81, "trial_index": 64, "gend": "female", "condition": 1}, {"rt": 741, "trial_type": "single-stim", "name": "Zach", "stimulus": "<p class='center-content'>Is this a smile?</p><p class='center-content'><img src='img/Zach_Affiliation.jpg' height='410' width='730'></img></p>", "expr": "affiliation", "time_elapsed": 137139, "internal_node_id": "0.0-1.0-64.0", "key_press": 81, "trial_index": 65, "gend": "male", "condition": 1}, {"rt": 856, "trial_type": "single-stim", "name": "Marcus", "stimulus": "<p class='center-content'>Is this a smile?</p><p class='center-content'><img src='img/Marcus_Affiliation.jpg' height='410' width='730'></img></p>", "expr": "affiliation", "time_elapsed": 137998, "internal_node_id": "0.0-1.0-65.0", "key_press": 81, "trial_index": 66, "gend": "male", "condition": 1}, {"rt": 1034, "trial_type": "single-stim", "name": "Dmonte", "stimulus": "<p class='center-content'>Is this a smile?</p><p class='center-content'><img src='img/Dmonte.jpg' height='410' width='730'></img></p>", "expr": "neutral", "time_elapsed": 139035, "internal_node_id": "0.0-1.0-66.0", "key_press": 80, "trial_index": 67, "gend": "male", "condition": 1}, {"rt": 5890, "trial_type": "single-stim", "name": "Maurice", "stimulus": "<p class='center-content'>Is this a smile?</p><p class='center-content'><img src='img/Maurice_Affiliation.jpg' height='410' width='730'></img></p>", "expr": "affiliation", "time_elapsed": 144927, "internal_node_id": "0.0-1.0-67.0", "key_press": 80, "trial_index": 68, "gend": "male", "condition": 1}, {"rt": 2190, "trial_type": "single-stim", "name": "Zach", "stimulus": "<p class='center-content'>Is this a smile?</p><p class='center-content'><img src='img/Zach.jpg' height='410' width='730'></img></p>", "expr": "neutral", "time_elapsed": 147119, "internal_node_id": "0.0-1.0-68.0", "key_press": 80, "trial_index": 69, "gend": "male", "condition": 1}, {"rt": 3253, "trial_type": "single-stim", "name": "Mary", "stimulus": "<p class='center-content'>Is this a smile?</p><p class='center-content'><img src='img/Mary_Disgust.jpg' height='410' width='730'></img></p>", "expr": "disgust", "time_elapsed": 150375, "internal_node_id": "0.0-1.0-69.0", "key_press": 80, "trial_index": 70, "gend": "female", "condition": 1}, {"rt": 1430, "trial_type": "single-stim", "name": "Lulu", "stimulus": "<p class='center-content'>Is this a smile?</p><p class='center-content'><img src='img/Lulu_Affiliation.jpg' height='410' width='730'></img></p>", "expr": "affiliation", "time_elapsed": 151807, "internal_node_id": "0.0-1.0-70.0", "key_press": 81, "trial_index": 71, "gend": "female", "condition": 1}, {"rt": 693, "trial_type": "single-stim", "name": "Anthony", "stimulus": "<p class='center-content'>Is this a smile?</p><p class='center-content'><img src='img/Anthony_Disgust.jpg' height='410' width='730'></img></p>", "expr": "disgust", "time_elapsed": 152503, "internal_node_id": "0.0-1.0-71.0", "key_press": 80, "trial_index": 72, "gend": "male", "condition": 1}, {"rt": 836, "trial_type": "single-stim", "name": "Mary", "stimulus": "<p class='center-content'>Is this a smile?</p><p class='center-content'><img src='img/Mary.jpg' height='410' width='730'></img></p>", "expr": "neutral", "time_elapsed": 153343, "internal_node_id": "0.0-1.0-72.0", "key_press": 80, "trial_index": 73, "gend": "female", "condition": 1}, {"rt": 662, "trial_type": "single-stim", "name": "Jourdan", "stimulus": "<p class='center-content'>Is this a smile?</p><p class='center-content'><img src='img/Jourdan.jpg' height='410' width='730'></img></p>", "expr": "neutral", "time_elapsed": 154008, "internal_node_id": "0.0-1.0-73.0", "key_press": 80, "trial_index": 74, "gend": "male", "condition": 1}, {"rt": 752, "trial_type": "single-stim", "name": "Zach", "stimulus": "<p class='center-content'>Is this a smile?</p><p class='center-content'><img src='img/Zach_Reward.jpg' height='410' width='730'></img></p>", "expr": "reward", "time_elapsed": 154791, "internal_node_id": "0.0-1.0-74.0", "key_press": 81, "trial_index": 75, "gend": "male", "condition": 1}, {"rt": 13687, "trial_type": "survey-multi-choice", "responses": "{\"Q0\":\"Male\",\"Q1\":\"White/Caucasian/European American\",\"Q2\":\"Right\"}", "time_elapsed": 168497, "internal_node_id": "0.0-2.0", "trial_index": 76}, {"rt": 4257, "trial_type": "survey-text", "responses": "{\"Q0\":\"Nope\"}", "time_elapsed": 173758, "internal_node_id": "0.0-3.0", "trial_index": 77}, {"rt": 2110, "trial_type": "text", "time_elapsed": 176871, "internal_node_id": "0.0-4.0", "key_press": 32, "trial_index": 78}]}, "AcceptTime": "2017-12-05T17:50:10Z", "HITId": "31HLTCK4BLVK8PDJAJS6YMNTWZYVG8", "Assignment": "", "AssignmentStatus": "Approved", "SubmitTime": "2017-12-05T18:00:06Z"}