{"ApprovalTime": "2017-12-05T22:17:18Z", "AutoApprovalTime": "2017-12-05T22:16:33Z", "AssignmentId": "3JV9LGBJWTES5P2FZABTSEPA5X7OGB", "WorkerId": "anon28", "answers": {"data": [{"rt": 6372, "trial_type": "text", "time_elapsed": 6374, "internal_node_id": "0.0-0.0", "key_press": 32, "trial_index": 0}, {"rt": 1686, "trial_type": "single-stim", "name": "Naomi", "stimulus": "<p class='center-content'>Is this a smile?</p><p class='center-content'><img src='img/Naomi.jpg' height='410' width='730'></img></p>", "expr": "neutral", "time_elapsed": 10064, "internal_node_id": "0.0-1.0-0.0", "key_press": 80, "trial_index": 1, "gend": "female", "condition": 2}, {"rt": 728, "trial_type": "single-stim", "name": "Andrew", "stimulus": "<p class='center-content'>Is this a smile?</p><p class='center-content'><img src='img/Andrew_Reward.jpg' height='410' width='730'></img></p>", "expr": "reward", "time_elapsed": 10795, "internal_node_id": "0.0-1.0-1.0", "key_press": 80, "trial_index": 2, "gend": "male", "condition": 2}, {"rt": 645, "trial_type": "single-stim", "name": "Joeseph", "stimulus": "<p class='center-content'>Is this a smile?</p><p class='center-content'><img src='img/Joeseph_Affiliation.jpg' height='410' width='730'></img></p>", "expr": "affiliation", "time_elapsed": 11442, "internal_node_id": "0.0-1.0-2.0", "key_press": 80, "trial_index": 3, "gend": "male", "condition": 2}, {"rt": 747, "trial_type": "single-stim", "name": "Zach", "stimulus": "<p class='center-content'>Is this a smile?</p><p class='center-content'><img src='img/Zach_Disgust.jpg' height='410' width='730'></img></p>", "expr": "disgust", "time_elapsed": 12191, "internal_node_id": "0.0-1.0-3.0", "key_press": 81, "trial_index": 4, "gend": "male", "condition": 2}, {"rt": 610, "trial_type": "single-stim", "name": "Dmonte", "stimulus": "<p class='center-content'>Is this a smile?</p><p class='center-content'><img src='img/Dmonte_Reward.jpg' height='410' width='730'></img></p>", "expr": "reward", "time_elapsed": 12803, "internal_node_id": "0.0-1.0-4.0", "key_press": 80, "trial_index": 5, "gend": "male", "condition": 2}, {"rt": 769, "trial_type": "single-stim", "name": "Jourdan", "stimulus": "<p class='center-content'>Is this a smile?</p><p class='center-content'><img src='img/Jourdan_Affiliation.jpg' height='410' width='730'></img></p>", "expr": "affiliation", "time_elapsed": 13575, "internal_node_id": "0.0-1.0-5.0", "key_press": 80, "trial_index": 6, "gend": "male", "condition": 2}, {"rt": 579, "trial_type": "single-stim", "name": "Naomi", "stimulus": "<p class='center-content'>Is this a smile?</p><p class='center-content'><img src='img/Naomi_Reward.jpg' height='410' width='730'></img></p>", "expr": "reward", "time_elapsed": 14156, "internal_node_id": "0.0-1.0-6.0", "key_press": 80, "trial_index": 7, "gend": "female", "condition": 2}, {"rt": 880, "trial_type": "single-stim", "name": "Maurice", "stimulus": "<p class='center-content'>Is this a smile?</p><p class='center-content'><img src='img/Maurice.jpg' height='410' width='730'></img></p>", "expr": "neutral", "time_elapsed": 15039, "internal_node_id": "0.0-1.0-7.0", "key_press": 80, "trial_index": 8, "gend": "male", "condition": 2}, {"rt": 1377, "trial_type": "single-stim", "name": "Mary", "stimulus": "<p class='center-content'>Is this a smile?</p><p class='center-content'><img src='img/Mary_Dominance.jpg' height='410' width='730'></img></p>", "expr": "dominance", "time_elapsed": 16418, "internal_node_id": "0.0-1.0-8.0", "key_press": 80, "trial_index": 9, "gend": "female", "condition": 2}, {"rt": 649, "trial_type": "single-stim", "name": "Maurice", "stimulus": "<p class='center-content'>Is this a smile?</p><p class='center-content'><img src='img/Maurice_Affiliation.jpg' height='410' width='730'></img></p>", "expr": "affiliation", "time_elapsed": 17069, "internal_node_id": "0.0-1.0-9.0", "key_press": 80, "trial_index": 10, "gend": "male", "condition": 2}, {"rt": 612, "trial_type": "single-stim", "name": "Dmonte", "stimulus": "<p class='center-content'>Is this a smile?</p><p class='center-content'><img src='img/Dmonte.jpg' height='410' width='730'></img></p>", "expr": "neutral", "time_elapsed": 17683, "internal_node_id": "0.0-1.0-10.0", "key_press": 80, "trial_index": 11, "gend": "male", "condition": 2}, {"rt": 751, "trial_type": "single-stim", "name": "Zach", "stimulus": "<p class='center-content'>Is this a smile?</p><p class='center-content'><img src='img/Zach_Dominance.jpg' height='410' width='730'></img></p>", "expr": "dominance", "time_elapsed": 18437, "internal_node_id": "0.0-1.0-11.0", "key_press": 81, "trial_index": 12, "gend": "male", "condition": 2}, {"rt": 722, "trial_type": "single-stim", "name": "Jessica", "stimulus": "<p class='center-content'>Is this a smile?</p><p class='center-content'><img src='img/Jessica_Affiliation.jpg' height='410' width='730'></img></p>", "expr": "affiliation", "time_elapsed": 19161, "internal_node_id": "0.0-1.0-12.0", "key_press": 80, "trial_index": 13, "gend": "female", "condition": 2}, {"rt": 652, "trial_type": "single-stim", "name": "Lulu", "stimulus": "<p class='center-content'>Is this a smile?</p><p class='center-content'><img src='img/Lulu_Affiliation.jpg' height='410' width='730'></img></p>", "expr": "affiliation", "time_elapsed": 19815, "internal_node_id": "0.0-1.0-13.0", "key_press": 80, "trial_index": 14, "gend": "female", "condition": 2}, {"rt": 637, "trial_type": "single-stim", "name": "Anthony", "stimulus": "<p class='center-content'>Is this a smile?</p><p class='center-content'><img src='img/Anthony_Dominance.jpg' height='410' width='730'></img></p>", "expr": "dominance", "time_elapsed": 20454, "internal_node_id": "0.0-1.0-14.0", "key_press": 80, "trial_index": 15, "gend": "male", "condition": 2}, {"rt": 739, "trial_type": "single-stim", "name": "Jessica", "stimulus": "<p class='center-content'>Is this a smile?</p><p class='center-content'><img src='img/Jessica.jpg' height='410' width='730'></img></p>", "expr": "neutral", "time_elapsed": 21195, "internal_node_id": "0.0-1.0-15.0", "key_press": 81, "trial_index": 16, "gend": "female", "condition": 2}, {"rt": 734, "trial_type": "single-stim", "name": "Anna", "stimulus": "<p class='center-content'>Is this a smile?</p><p class='center-content'><img src='img/Anna_Disgust.jpg' height='410' width='730'></img></p>", "expr": "disgust", "time_elapsed": 21932, "internal_node_id": "0.0-1.0-16.0", "key_press": 81, "trial_index": 17, "gend": "female", "condition": 2}, {"rt": 756, "trial_type": "single-stim", "name": "Jourdan", "stimulus": "<p class='center-content'>Is this a smile?</p><p class='center-content'><img src='img/Jourdan_Reward.jpg' height='410' width='730'></img></p>", "expr": "reward", "time_elapsed": 22690, "internal_node_id": "0.0-1.0-17.0", "key_press": 80, "trial_index": 18, "gend": "male", "condition": 2}, {"rt": 587, "trial_type": "single-stim", "name": "Jessica", "stimulus": "<p class='center-content'>Is this a smile?</p><p class='center-content'><img src='img/Jessica_Reward.jpg' height='410' width='730'></img></p>", "expr": "reward", "time_elapsed": 23280, "internal_node_id": "0.0-1.0-18.0", "key_press": 80, "trial_index": 19, "gend": "female", "condition": 2}, {"rt": 563, "trial_type": "single-stim", "name": "Marcus", "stimulus": "<p class='center-content'>Is this a smile?</p><p class='center-content'><img src='img/Marcus_Reward.jpg' height='410' width='730'></img></p>", "expr": "reward", "time_elapsed": 23845, "internal_node_id": "0.0-1.0-19.0", "key_press": 80, "trial_index": 20, "gend": "male", "condition": 2}, {"rt": 617, "trial_type": "single-stim", "name": "Andrew", "stimulus": "<p class='center-content'>Is this a smile?</p><p class='center-content'><img src='img/Andrew_Affiliation.jpg' height='410' width='730'></img></p>", "expr": "affiliation", "time_elapsed": 24465, "internal_node_id": "0.0-1.0-20.0", "key_press": 80, "trial_index": 21, "gend": "male", "condition": 2}, {"rt": 671, "trial_type": "single-stim", "name": "Joeseph", "stimulus": "<p class='center-content'>Is this a smile?</p><p class='center-content'><img src='img/Joeseph_Disgust.jpg' height='410' width='730'></img></p>", "expr": "disgust", "time_elapsed": 25138, "internal_node_id": "0.0-1.0-21.0", "key_press": 81, "trial_index": 22, "gend": "male", "condition": 2}, {"rt": 1068, "trial_type": "single-stim", "name": "Dmonte", "stimulus": "<p class='center-content'>Is this a smile?</p><p class='center-content'><img src='img/Dmonte_Dominance.jpg' height='410' width='730'></img></p>", "expr": "dominance", "time_elapsed": 26208, "internal_node_id": "0.0-1.0-22.0", "key_press": 80, "trial_index": 23, "gend": "male", "condition": 2}, {"rt": 865, "trial_type": "single-stim", "name": "Anthony", "stimulus": "<p class='center-content'>Is this a smile?</p><p class='center-content'><img src='img/Anthony.jpg' height='410' width='730'></img></p>", "expr": "neutral", "time_elapsed": 27075, "internal_node_id": "0.0-1.0-23.0", "key_press": 81, "trial_index": 24, "gend": "male", "condition": 2}, {"rt": 1030, "trial_type": "single-stim", "name": "Naomi", "stimulus": "<p class='center-content'>Is this a smile?</p><p class='center-content'><img src='img/Naomi_Dominance.jpg' height='410' width='730'></img></p>", "expr": "dominance", "time_elapsed": 28108, "internal_node_id": "0.0-1.0-24.0", "key_press": 81, "trial_index": 25, "gend": "female", "condition": 2}, {"rt": 598, "trial_type": "single-stim", "name": "KJ", "stimulus": "<p class='center-content'>Is this a smile?</p><p class='center-content'><img src='img/KJ_Reward.jpg' height='410' width='730'></img></p>", "expr": "reward", "time_elapsed": 28709, "internal_node_id": "0.0-1.0-25.0", "key_press": 80, "trial_index": 26, "gend": "female", "condition": 2}, {"rt": 1137, "trial_type": "single-stim", "name": "Anthony", "stimulus": "<p class='center-content'>Is this a smile?</p><p class='center-content'><img src='img/Anthony_Affiliation.jpg' height='410' width='730'></img></p>", "expr": "affiliation", "time_elapsed": 29848, "internal_node_id": "0.0-1.0-26.0", "key_press": 81, "trial_index": 27, "gend": "male", "condition": 2}, {"rt": 779, "trial_type": "single-stim", "name": "Anna", "stimulus": "<p class='center-content'>Is this a smile?</p><p class='center-content'><img src='img/Anna.jpg' height='410' width='730'></img></p>", "expr": "neutral", "time_elapsed": 30630, "internal_node_id": "0.0-1.0-27.0", "key_press": 80, "trial_index": 28, "gend": "female", "condition": 2}, {"rt": 728, "trial_type": "single-stim", "name": "Ashley", "stimulus": "<p class='center-content'>Is this a smile?</p><p class='center-content'><img src='img/Ashley_Disgust.jpg' height='410' width='730'></img></p>", "expr": "disgust", "time_elapsed": 31360, "internal_node_id": "0.0-1.0-28.0", "key_press": 81, "trial_index": 29, "gend": "female", "condition": 2}, {"rt": 619, "trial_type": "single-stim", "name": "Andrew", "stimulus": "<p class='center-content'>Is this a smile?</p><p class='center-content'><img src='img/Andrew_Dominance.jpg' height='410' width='730'></img></p>", "expr": "dominance", "time_elapsed": 31981, "internal_node_id": "0.0-1.0-29.0", "key_press": 80, "trial_index": 30, "gend": "male", "condition": 2}, {"rt": 623, "trial_type": "single-stim", "name": "Anna", "stimulus": "<p class='center-content'>Is this a smile?</p><p class='center-content'><img src='img/Anna_Dominance.jpg' height='410' width='730'></img></p>", "expr": "dominance", "time_elapsed": 32607, "internal_node_id": "0.0-1.0-30.0", "key_press": 80, "trial_index": 31, "gend": "female", "condition": 2}, {"rt": 658, "trial_type": "single-stim", "name": "Jourdan", "stimulus": "<p class='center-content'>Is this a smile?</p><p class='center-content'><img src='img/Jourdan_Disgust.jpg' height='410' width='730'></img></p>", "expr": "disgust", "time_elapsed": 33267, "internal_node_id": "0.0-1.0-31.0", "key_press": 81, "trial_index": 32, "gend": "male", "condition": 2}, {"rt": 600, "trial_type": "single-stim", "name": "Maurice", "stimulus": "<p class='center-content'>Is this a smile?</p><p class='center-content'><img src='img/Maurice_Reward.jpg' height='410' width='730'></img></p>", "expr": "reward", "time_elapsed": 33869, "internal_node_id": "0.0-1.0-32.0", "key_press": 80, "trial_index": 33, "gend": "male", "condition": 2}, {"rt": 943, "trial_type": "single-stim", "name": "Lulu", "stimulus": "<p class='center-content'>Is this a smile?</p><p class='center-content'><img src='img/Lulu.jpg' height='410' width='730'></img></p>", "expr": "neutral", "time_elapsed": 34815, "internal_node_id": "0.0-1.0-33.0", "key_press": 81, "trial_index": 34, "gend": "female", "condition": 2}, {"rt": 752, "trial_type": "single-stim", "name": "Maurice", "stimulus": "<p class='center-content'>Is this a smile?</p><p class='center-content'><img src='img/Maurice_Disgust.jpg' height='410' width='730'></img></p>", "expr": "disgust", "time_elapsed": 35575, "internal_node_id": "0.0-1.0-34.0", "key_press": 81, "trial_index": 35, "gend": "male", "condition": 2}, {"rt": 573, "trial_type": "single-stim", "name": "Marcus", "stimulus": "<p class='center-content'>Is this a smile?</p><p class='center-content'><img src='img/Marcus_Disgust.jpg' height='410' width='730'></img></p>", "expr": "disgust", "time_elapsed": 36150, "internal_node_id": "0.0-1.0-35.0", "key_press": 81, "trial_index": 36, "gend": "male", "condition": 2}, {"rt": 655, "trial_type": "single-stim", "name": "Anthony", "stimulus": "<p class='center-content'>Is this a smile?</p><p class='center-content'><img src='img/Anthony_Reward.jpg' height='410' width='730'></img></p>", "expr": "reward", "time_elapsed": 36807, "internal_node_id": "0.0-1.0-36.0", "key_press": 80, "trial_index": 37, "gend": "male", "condition": 2}, {"rt": 966, "trial_type": "single-stim", "name": "Anna", "stimulus": "<p class='center-content'>Is this a smile?</p><p class='center-content'><img src='img/Anna_Reward.jpg' height='410' width='730'></img></p>", "expr": "reward", "time_elapsed": 37775, "internal_node_id": "0.0-1.0-37.0", "key_press": 80, "trial_index": 38, "gend": "female", "condition": 2}, {"rt": 698, "trial_type": "single-stim", "name": "Ashley", "stimulus": "<p class='center-content'>Is this a smile?</p><p class='center-content'><img src='img/Ashley.jpg' height='410' width='730'></img></p>", "expr": "neutral", "time_elapsed": 38476, "internal_node_id": "0.0-1.0-38.0", "key_press": 80, "trial_index": 39, "gend": "female", "condition": 2}, {"rt": 675, "trial_type": "single-stim", "name": "Andrew", "stimulus": "<p class='center-content'>Is this a smile?</p><p class='center-content'><img src='img/Andrew_Disgust.jpg' height='410' width='730'></img></p>", "expr": "disgust", "time_elapsed": 39153, "internal_node_id": "0.0-1.0-39.0", "key_press": 81, "trial_index": 40, "gend": "male", "condition": 2}, {"rt": 694, "trial_type": "single-stim", "name": "Lulu", "stimulus": "<p class='center-content'>Is this a smile?</p><p class='center-content'><img src='img/Lulu_Disgust.jpg' height='410' width='730'></img></p>", "expr": "disgust", "time_elapsed": 39849, "internal_node_id": "0.0-1.0-40.0", "key_press": 81, "trial_index": 41, "gend": "female", "condition": 2}, {"rt": 642, "trial_type": "single-stim", "name": "Zach", "stimulus": "<p class='center-content'>Is this a smile?</p><p class='center-content'><img src='img/Zach_Affiliation.jpg' height='410' width='730'></img></p>", "expr": "affiliation", "time_elapsed": 40494, "internal_node_id": "0.0-1.0-41.0", "key_press": 80, "trial_index": 42, "gend": "male", "condition": 2}, {"rt": 707, "trial_type": "single-stim", "name": "Ashley", "stimulus": "<p class='center-content'>Is this a smile?</p><p class='center-content'><img src='img/Ashley_Dominance.jpg' height='410' width='730'></img></p>", "expr": "dominance", "time_elapsed": 41203, "internal_node_id": "0.0-1.0-42.0", "key_press": 80, "trial_index": 43, "gend": "female", "condition": 2}, {"rt": 924, "trial_type": "single-stim", "name": "Joeseph", "stimulus": "<p class='center-content'>Is this a smile?</p><p class='center-content'><img src='img/Joeseph_Dominance.jpg' height='410' width='730'></img></p>", "expr": "dominance", "time_elapsed": 42129, "internal_node_id": "0.0-1.0-43.0", "key_press": 80, "trial_index": 44, "gend": "male", "condition": 2}, {"rt": 577, "trial_type": "single-stim", "name": "Marcus", "stimulus": "<p class='center-content'>Is this a smile?</p><p class='center-content'><img src='img/Marcus_Dominance.jpg' height='410' width='730'></img></p>", "expr": "dominance", "time_elapsed": 42708, "internal_node_id": "0.0-1.0-44.0", "key_press": 80, "trial_index": 45, "gend": "male", "condition": 2}, {"rt": 696, "trial_type": "single-stim", "name": "Jourdan", "stimulus": "<p class='center-content'>Is this a smile?</p><p class='center-content'><img src='img/Jourdan_Dominance.jpg' height='410' width='730'></img></p>", "expr": "dominance", "time_elapsed": 43406, "internal_node_id": "0.0-1.0-45.0", "key_press": 81, "trial_index": 46, "gend": "male", "condition": 2}, {"rt": 875, "trial_type": "single-stim", "name": "Marcus", "stimulus": "<p class='center-content'>Is this a smile?</p><p class='center-content'><img src='img/Marcus.jpg' height='410' width='730'></img></p>", "expr": "neutral", "time_elapsed": 44284, "internal_node_id": "0.0-1.0-46.0", "key_press": 81, "trial_index": 47, "gend": "male", "condition": 2}, {"rt": 631, "trial_type": "single-stim", "name": "Anthony", "stimulus": "<p class='center-content'>Is this a smile?</p><p class='center-content'><img src='img/Anthony_Disgust.jpg' height='410' width='730'></img></p>", "expr": "disgust", "time_elapsed": 44917, "internal_node_id": "0.0-1.0-47.0", "key_press": 81, "trial_index": 48, "gend": "male", "condition": 2}, {"rt": 634, "trial_type": "single-stim", "name": "Dmonte", "stimulus": "<p class='center-content'>Is this a smile?</p><p class='center-content'><img src='img/Dmonte_Affiliation.jpg' height='410' width='730'></img></p>", "expr": "affiliation", "time_elapsed": 45554, "internal_node_id": "0.0-1.0-48.0", "key_press": 80, "trial_index": 49, "gend": "male", "condition": 2}, {"rt": 619, "trial_type": "single-stim", "name": "Naomi", "stimulus": "<p class='center-content'>Is this a smile?</p><p class='center-content'><img src='img/Naomi_Affiliation.jpg' height='410' width='730'></img></p>", "expr": "affiliation", "time_elapsed": 46176, "internal_node_id": "0.0-1.0-49.0", "key_press": 80, "trial_index": 50, "gend": "female", "condition": 2}, {"rt": 525, "trial_type": "single-stim", "name": "Ashley", "stimulus": "<p class='center-content'>Is this a smile?</p><p class='center-content'><img src='img/Ashley_Reward.jpg' height='410' width='730'></img></p>", "expr": "reward", "time_elapsed": 46703, "internal_node_id": "0.0-1.0-50.0", "key_press": 80, "trial_index": 51, "gend": "female", "condition": 2}, {"rt": 644, "trial_type": "single-stim", "name": "Zach", "stimulus": "<p class='center-content'>Is this a smile?</p><p class='center-content'><img src='img/Zach_Reward.jpg' height='410' width='730'></img></p>", "expr": "reward", "time_elapsed": 47349, "internal_node_id": "0.0-1.0-51.0", "key_press": 80, "trial_index": 52, "gend": "male", "condition": 2}, {"rt": 654, "trial_type": "single-stim", "name": "KJ", "stimulus": "<p class='center-content'>Is this a smile?</p><p class='center-content'><img src='img/KJ_Dominance.jpg' height='410' width='730'></img></p>", "expr": "dominance", "time_elapsed": 48005, "internal_node_id": "0.0-1.0-52.0", "key_press": 80, "trial_index": 53, "gend": "female", "condition": 2}, {"rt": 507, "trial_type": "single-stim", "name": "Anna", "stimulus": "<p class='center-content'>Is this a smile?</p><p class='center-content'><img src='img/Anna_Affiliation.jpg' height='410' width='730'></img></p>", "expr": "affiliation", "time_elapsed": 48516, "internal_node_id": "0.0-1.0-53.0", "key_press": 80, "trial_index": 54, "gend": "female", "condition": 2}, {"rt": 591, "trial_type": "single-stim", "name": "Joeseph", "stimulus": "<p class='center-content'>Is this a smile?</p><p class='center-content'><img src='img/Joeseph_Reward.jpg' height='410' width='730'></img></p>", "expr": "reward", "time_elapsed": 49109, "internal_node_id": "0.0-1.0-54.0", "key_press": 80, "trial_index": 55, "gend": "male", "condition": 2}, {"rt": 838, "trial_type": "single-stim", "name": "Andrew", "stimulus": "<p class='center-content'>Is this a smile?</p><p class='center-content'><img src='img/Andrew.jpg' height='410' width='730'></img></p>", "expr": "neutral", "time_elapsed": 49950, "internal_node_id": "0.0-1.0-55.0", "key_press": 81, "trial_index": 56, "gend": "male", "condition": 2}, {"rt": 601, "trial_type": "single-stim", "name": "Jourdan", "stimulus": "<p class='center-content'>Is this a smile?</p><p class='center-content'><img src='img/Jourdan.jpg' height='410' width='730'></img></p>", "expr": "neutral", "time_elapsed": 50553, "internal_node_id": "0.0-1.0-56.0", "key_press": 81, "trial_index": 57, "gend": "male", "condition": 2}, {"rt": 564, "trial_type": "single-stim", "name": "Zach", "stimulus": "<p class='center-content'>Is this a smile?</p><p class='center-content'><img src='img/Zach.jpg' height='410' width='730'></img></p>", "expr": "neutral", "time_elapsed": 51119, "internal_node_id": "0.0-1.0-57.0", "key_press": 81, "trial_index": 58, "gend": "male", "condition": 2}, {"rt": 679, "trial_type": "single-stim", "name": "Mary", "stimulus": "<p class='center-content'>Is this a smile?</p><p class='center-content'><img src='img/Mary_Affiliation.jpg' height='410' width='730'></img></p>", "expr": "affiliation", "time_elapsed": 51800, "internal_node_id": "0.0-1.0-58.0", "key_press": 81, "trial_index": 59, "gend": "female", "condition": 2}, {"rt": 662, "trial_type": "single-stim", "name": "KJ", "stimulus": "<p class='center-content'>Is this a smile?</p><p class='center-content'><img src='img/KJ_Affiliation.jpg' height='410' width='730'></img></p>", "expr": "affiliation", "time_elapsed": 52464, "internal_node_id": "0.0-1.0-59.0", "key_press": 80, "trial_index": 60, "gend": "female", "condition": 2}, {"rt": 556, "trial_type": "single-stim", "name": "KJ", "stimulus": "<p class='center-content'>Is this a smile?</p><p class='center-content'><img src='img/KJ.jpg' height='410' width='730'></img></p>", "expr": "neutral", "time_elapsed": 53023, "internal_node_id": "0.0-1.0-60.0", "key_press": 80, "trial_index": 61, "gend": "female", "condition": 2}, {"rt": 1443, "trial_type": "single-stim", "name": "Naomi", "stimulus": "<p class='center-content'>Is this a smile?</p><p class='center-content'><img src='img/Naomi_DIsgust.jpg' height='410' width='730'></img></p>", "expr": "disgust", "time_elapsed": 54468, "internal_node_id": "0.0-1.0-61.0", "key_press": 81, "trial_index": 62, "gend": "female", "condition": 2}, {"rt": 803, "trial_type": "single-stim", "name": "Marcus", "stimulus": "<p class='center-content'>Is this a smile?</p><p class='center-content'><img src='img/Marcus_Affiliation.jpg' height='410' width='730'></img></p>", "expr": "affiliation", "time_elapsed": 55273, "internal_node_id": "0.0-1.0-62.0", "key_press": 80, "trial_index": 63, "gend": "male", "condition": 2}, {"rt": 589, "trial_type": "single-stim", "name": "Mary", "stimulus": "<p class='center-content'>Is this a smile?</p><p class='center-content'><img src='img/Mary_Reward.jpg' height='410' width='730'></img></p>", "expr": "reward", "time_elapsed": 55865, "internal_node_id": "0.0-1.0-63.0", "key_press": 80, "trial_index": 64, "gend": "female", "condition": 2}, {"rt": 563, "trial_type": "single-stim", "name": "Lulu", "stimulus": "<p class='center-content'>Is this a smile?</p><p class='center-content'><img src='img/Lulu_Reward.jpg' height='410' width='730'></img></p>", "expr": "reward", "time_elapsed": 56431, "internal_node_id": "0.0-1.0-64.0", "key_press": 80, "trial_index": 65, "gend": "female", "condition": 2}, {"rt": 716, "trial_type": "single-stim", "name": "Jessica", "stimulus": "<p class='center-content'>Is this a smile?</p><p class='center-content'><img src='img/Jessica_Disgust.jpg' height='410' width='730'></img></p>", "expr": "disgust", "time_elapsed": 57153, "internal_node_id": "0.0-1.0-65.0", "key_press": 81, "trial_index": 66, "gend": "female", "condition": 2}, {"rt": 663, "trial_type": "single-stim", "name": "Ashley", "stimulus": "<p class='center-content'>Is this a smile?</p><p class='center-content'><img src='img/Ashley_Affiliation.jpg' height='410' width='730'></img></p>", "expr": "affiliation", "time_elapsed": 57818, "internal_node_id": "0.0-1.0-66.0", "key_press": 80, "trial_index": 67, "gend": "female", "condition": 2}, {"rt": 663, "trial_type": "single-stim", "name": "Mary", "stimulus": "<p class='center-content'>Is this a smile?</p><p class='center-content'><img src='img/Mary_Disgust.jpg' height='410' width='730'></img></p>", "expr": "disgust", "time_elapsed": 58484, "internal_node_id": "0.0-1.0-67.0", "key_press": 81, "trial_index": 68, "gend": "female", "condition": 2}, {"rt": 724, "trial_type": "single-stim", "name": "Jessica", "stimulus": "<p class='center-content'>Is this a smile?</p><p class='center-content'><img src='img/Jessica_Dominance.jpg' height='410' width='730'></img></p>", "expr": "dominance", "time_elapsed": 59211, "internal_node_id": "0.0-1.0-68.0", "key_press": 80, "trial_index": 69, "gend": "female", "condition": 2}, {"rt": 598, "trial_type": "single-stim", "name": "Lulu", "stimulus": "<p class='center-content'>Is this a smile?</p><p class='center-content'><img src='img/Lulu_Dominance.jpg' height='410' width='730'></img></p>", "expr": "dominance", "time_elapsed": 59812, "internal_node_id": "0.0-1.0-69.0", "key_press": 80, "trial_index": 70, "gend": "female", "condition": 2}, {"rt": 682, "trial_type": "single-stim", "name": "Maurice", "stimulus": "<p class='center-content'>Is this a smile?</p><p class='center-content'><img src='img/Maurice_Dominance.jpg' height='410' width='730'></img></p>", "expr": "dominance", "time_elapsed": 60497, "internal_node_id": "0.0-1.0-70.0", "key_press": 80, "trial_index": 71, "gend": "male", "condition": 2}, {"rt": 675, "trial_type": "single-stim", "name": "Dmonte", "stimulus": "<p class='center-content'>Is this a smile?</p><p class='center-content'><img src='img/Dmonte_Disgust.jpg' height='410' width='730'></img></p>", "expr": "disgust", "time_elapsed": 61175, "internal_node_id": "0.0-1.0-71.0", "key_press": 81, "trial_index": 72, "gend": "male", "condition": 2}, {"rt": 766, "trial_type": "single-stim", "name": "Mary", "stimulus": "<p class='center-content'>Is this a smile?</p><p class='center-content'><img src='img/Mary.jpg' height='410' width='730'></img></p>", "expr": "neutral", "time_elapsed": 61944, "internal_node_id": "0.0-1.0-72.0", "key_press": 81, "trial_index": 73, "gend": "female", "condition": 2}, {"rt": 663, "trial_type": "single-stim", "name": "Joeseph", "stimulus": "<p class='center-content'>Is this a smile?</p><p class='center-content'><img src='img/Joeseph.jpg' height='410' width='730'></img></p>", "expr": "neutral", "time_elapsed": 62610, "internal_node_id": "0.0-1.0-73.0", "key_press": 81, "trial_index": 74, "gend": "male", "condition": 2}, {"rt": 621, "trial_type": "single-stim", "name": "KJ", "stimulus": "<p class='center-content'>Is this a smile?</p><p class='center-content'><img src='img/KJ_Disgust.jpg' height='410' width='730'></img></p>", "expr": "disgust", "time_elapsed": 63234, "internal_node_id": "0.0-1.0-74.0", "key_press": 81, "trial_index": 75, "gend": "female", "condition": 2}, {"rt": 8211, "trial_type": "survey-multi-choice", "responses": "{\"Q0\":\"Female\",\"Q1\":\"White/Caucasian/European American\",\"Q2\":\"Right\"}", "time_elapsed": 71468, "internal_node_id": "0.0-2.0", "trial_index": 76}, {"rt": 2685, "trial_type": "survey-text", "responses": "{\"Q0\":\"no\"}", "time_elapsed": 75155, "internal_node_id": "0.0-3.0", "trial_index": 77}, {"rt": 1420, "trial_type": "text", "time_elapsed": 77577, "internal_node_id": "0.0-4.0", "key_press": 32, "trial_index": 78}]}, "AcceptTime": "2017-12-05T22:09:03Z", "HITId": "3KI0JD2ZU1IG06NHG8G4GHU1G4D76H", "Assignment": "", "AssignmentStatus": "Approved", "SubmitTime": "2017-12-05T22:11:33Z"}