{"ApprovalTime": "2017-12-05T19:47:18Z", "AutoApprovalTime": "2017-12-05T19:47:11Z", "AssignmentId": "3AWETUDC92SI0KMHR7MDTO9U4C6ZIG", "WorkerId": "anon17", "answers": {"data": [{"rt": 22215, "trial_type": "text", "time_elapsed": 22218, "internal_node_id": "0.0-0.0", "key_press": 32, "trial_index": 0}, {"rt": 1986, "trial_type": "single-stim", "name": "Maurice", "stimulus": "<p class='center-content'>Is this a smile?</p><p class='center-content'><img src='img/Maurice_Disgust.jpg' height='410' width='730'></img></p>", "expr": "disgust", "time_elapsed": 26211, "internal_node_id": "0.0-1.0-0.0", "key_press": 80, "trial_index": 1, "gend": "male", "condition": 1}, {"rt": 1038, "trial_type": "single-stim", "name": "Joeseph", "stimulus": "<p class='center-content'>Is this a smile?</p><p class='center-content'><img src='img/Joeseph_Reward.jpg' height='410' width='730'></img></p>", "expr": "reward", "time_elapsed": 27253, "internal_node_id": "0.0-1.0-1.0", "key_press": 81, "trial_index": 2, "gend": "male", "condition": 1}, {"rt": 1064, "trial_type": "single-stim", "name": "Anthony", "stimulus": "<p class='center-content'>Is this a smile?</p><p class='center-content'><img src='img/Anthony_Dominance.jpg' height='410' width='730'></img></p>", "expr": "dominance", "time_elapsed": 28321, "internal_node_id": "0.0-1.0-2.0", "key_press": 81, "trial_index": 3, "gend": "male", "condition": 1}, {"rt": 868, "trial_type": "single-stim", "name": "Ashley", "stimulus": "<p class='center-content'>Is this a smile?</p><p class='center-content'><img src='img/Ashley_Disgust.jpg' height='410' width='730'></img></p>", "expr": "disgust", "time_elapsed": 29191, "internal_node_id": "0.0-1.0-3.0", "key_press": 80, "trial_index": 4, "gend": "female", "condition": 1}, {"rt": 907, "trial_type": "single-stim", "name": "Ashley", "stimulus": "<p class='center-content'>Is this a smile?</p><p class='center-content'><img src='img/Ashley_Reward.jpg' height='410' width='730'></img></p>", "expr": "reward", "time_elapsed": 30101, "internal_node_id": "0.0-1.0-4.0", "key_press": 81, "trial_index": 5, "gend": "female", "condition": 1}, {"rt": 1158, "trial_type": "single-stim", "name": "Zach", "stimulus": "<p class='center-content'>Is this a smile?</p><p class='center-content'><img src='img/Zach_Disgust.jpg' height='410' width='730'></img></p>", "expr": "disgust", "time_elapsed": 31261, "internal_node_id": "0.0-1.0-5.0", "key_press": 80, "trial_index": 6, "gend": "male", "condition": 1}, {"rt": 1966, "trial_type": "single-stim", "name": "Marcus", "stimulus": "<p class='center-content'>Is this a smile?</p><p class='center-content'><img src='img/Marcus.jpg' height='410' width='730'></img></p>", "expr": "neutral", "time_elapsed": 33230, "internal_node_id": "0.0-1.0-6.0", "key_press": 81, "trial_index": 7, "gend": "male", "condition": 1}, {"rt": 1598, "trial_type": "single-stim", "name": "Naomi", "stimulus": "<p class='center-content'>Is this a smile?</p><p class='center-content'><img src='img/Naomi_DIsgust.jpg' height='410' width='730'></img></p>", "expr": "disgust", "time_elapsed": 34830, "internal_node_id": "0.0-1.0-7.0", "key_press": 80, "trial_index": 8, "gend": "female", "condition": 1}, {"rt": 812, "trial_type": "single-stim", "name": "KJ", "stimulus": "<p class='center-content'>Is this a smile?</p><p class='center-content'><img src='img/KJ_Reward.jpg' height='410' width='730'></img></p>", "expr": "reward", "time_elapsed": 35645, "internal_node_id": "0.0-1.0-8.0", "key_press": 81, "trial_index": 9, "gend": "female", "condition": 1}, {"rt": 1415, "trial_type": "single-stim", "name": "Joeseph", "stimulus": "<p class='center-content'>Is this a smile?</p><p class='center-content'><img src='img/Joeseph.jpg' height='410' width='730'></img></p>", "expr": "neutral", "time_elapsed": 37061, "internal_node_id": "0.0-1.0-9.0", "key_press": 80, "trial_index": 10, "gend": "male", "condition": 1}, {"rt": 893, "trial_type": "single-stim", "name": "Anna", "stimulus": "<p class='center-content'>Is this a smile?</p><p class='center-content'><img src='img/Anna_Disgust.jpg' height='410' width='730'></img></p>", "expr": "disgust", "time_elapsed": 37955, "internal_node_id": "0.0-1.0-10.0", "key_press": 80, "trial_index": 11, "gend": "female", "condition": 1}, {"rt": 797, "trial_type": "single-stim", "name": "Jessica", "stimulus": "<p class='center-content'>Is this a smile?</p><p class='center-content'><img src='img/Jessica_Affiliation.jpg' height='410' width='730'></img></p>", "expr": "affiliation", "time_elapsed": 38753, "internal_node_id": "0.0-1.0-11.0", "key_press": 81, "trial_index": 12, "gend": "female", "condition": 1}, {"rt": 1002, "trial_type": "single-stim", "name": "Joeseph", "stimulus": "<p class='center-content'>Is this a smile?</p><p class='center-content'><img src='img/Joeseph_Dominance.jpg' height='410' width='730'></img></p>", "expr": "dominance", "time_elapsed": 39757, "internal_node_id": "0.0-1.0-12.0", "key_press": 81, "trial_index": 13, "gend": "male", "condition": 1}, {"rt": 938, "trial_type": "single-stim", "name": "Mary", "stimulus": "<p class='center-content'>Is this a smile?</p><p class='center-content'><img src='img/Mary.jpg' height='410' width='730'></img></p>", "expr": "neutral", "time_elapsed": 40698, "internal_node_id": "0.0-1.0-13.0", "key_press": 80, "trial_index": 14, "gend": "female", "condition": 1}, {"rt": 768, "trial_type": "single-stim", "name": "Joeseph", "stimulus": "<p class='center-content'>Is this a smile?</p><p class='center-content'><img src='img/Joeseph_Affiliation.jpg' height='410' width='730'></img></p>", "expr": "affiliation", "time_elapsed": 41468, "internal_node_id": "0.0-1.0-14.0", "key_press": 81, "trial_index": 15, "gend": "male", "condition": 1}, {"rt": 954, "trial_type": "single-stim", "name": "Dmonte", "stimulus": "<p class='center-content'>Is this a smile?</p><p class='center-content'><img src='img/Dmonte_Affiliation.jpg' height='410' width='730'></img></p>", "expr": "affiliation", "time_elapsed": 42426, "internal_node_id": "0.0-1.0-15.0", "key_press": 81, "trial_index": 16, "gend": "male", "condition": 1}, {"rt": 1056, "trial_type": "single-stim", "name": "Zach", "stimulus": "<p class='center-content'>Is this a smile?</p><p class='center-content'><img src='img/Zach_Reward.jpg' height='410' width='730'></img></p>", "expr": "reward", "time_elapsed": 43484, "internal_node_id": "0.0-1.0-16.0", "key_press": 81, "trial_index": 17, "gend": "male", "condition": 1}, {"rt": 941, "trial_type": "single-stim", "name": "Mary", "stimulus": "<p class='center-content'>Is this a smile?</p><p class='center-content'><img src='img/Mary_Dominance.jpg' height='410' width='730'></img></p>", "expr": "dominance", "time_elapsed": 44428, "internal_node_id": "0.0-1.0-17.0", "key_press": 81, "trial_index": 18, "gend": "female", "condition": 1}, {"rt": 1015, "trial_type": "single-stim", "name": "Naomi", "stimulus": "<p class='center-content'>Is this a smile?</p><p class='center-content'><img src='img/Naomi_Dominance.jpg' height='410' width='730'></img></p>", "expr": "dominance", "time_elapsed": 45446, "internal_node_id": "0.0-1.0-18.0", "key_press": 81, "trial_index": 19, "gend": "female", "condition": 1}, {"rt": 611, "trial_type": "single-stim", "name": "Jourdan", "stimulus": "<p class='center-content'>Is this a smile?</p><p class='center-content'><img src='img/Jourdan_Reward.jpg' height='410' width='730'></img></p>", "expr": "reward", "time_elapsed": 46060, "internal_node_id": "0.0-1.0-19.0", "key_press": 81, "trial_index": 20, "gend": "male", "condition": 1}, {"rt": 531, "trial_type": "single-stim", "name": "Ashley", "stimulus": "<p class='center-content'>Is this a smile?</p><p class='center-content'><img src='img/Ashley_Affiliation.jpg' height='410' width='730'></img></p>", "expr": "affiliation", "time_elapsed": 46593, "internal_node_id": "0.0-1.0-20.0", "key_press": 81, "trial_index": 21, "gend": "female", "condition": 1}, {"rt": 542, "trial_type": "single-stim", "name": "Anna", "stimulus": "<p class='center-content'>Is this a smile?</p><p class='center-content'><img src='img/Anna_Reward.jpg' height='410' width='730'></img></p>", "expr": "reward", "time_elapsed": 47138, "internal_node_id": "0.0-1.0-21.0", "key_press": 81, "trial_index": 22, "gend": "female", "condition": 1}, {"rt": 562, "trial_type": "single-stim", "name": "Anthony", "stimulus": "<p class='center-content'>Is this a smile?</p><p class='center-content'><img src='img/Anthony_Reward.jpg' height='410' width='730'></img></p>", "expr": "reward", "time_elapsed": 47701, "internal_node_id": "0.0-1.0-22.0", "key_press": 81, "trial_index": 23, "gend": "male", "condition": 1}, {"rt": 567, "trial_type": "single-stim", "name": "Anthony", "stimulus": "<p class='center-content'>Is this a smile?</p><p class='center-content'><img src='img/Anthony_Disgust.jpg' height='410' width='730'></img></p>", "expr": "disgust", "time_elapsed": 48271, "internal_node_id": "0.0-1.0-23.0", "key_press": 80, "trial_index": 24, "gend": "male", "condition": 1}, {"rt": 1722, "trial_type": "single-stim", "name": "Anthony", "stimulus": "<p class='center-content'>Is this a smile?</p><p class='center-content'><img src='img/Anthony_Affiliation.jpg' height='410' width='730'></img></p>", "expr": "affiliation", "time_elapsed": 49995, "internal_node_id": "0.0-1.0-24.0", "key_press": 81, "trial_index": 25, "gend": "male", "condition": 1}, {"rt": 799, "trial_type": "single-stim", "name": "Jourdan", "stimulus": "<p class='center-content'>Is this a smile?</p><p class='center-content'><img src='img/Jourdan_Dominance.jpg' height='410' width='730'></img></p>", "expr": "dominance", "time_elapsed": 50797, "internal_node_id": "0.0-1.0-25.0", "key_press": 81, "trial_index": 26, "gend": "male", "condition": 1}, {"rt": 611, "trial_type": "single-stim", "name": "Mary", "stimulus": "<p class='center-content'>Is this a smile?</p><p class='center-content'><img src='img/Mary_Disgust.jpg' height='410' width='730'></img></p>", "expr": "disgust", "time_elapsed": 51412, "internal_node_id": "0.0-1.0-26.0", "key_press": 80, "trial_index": 27, "gend": "female", "condition": 1}, {"rt": 875, "trial_type": "single-stim", "name": "Anthony", "stimulus": "<p class='center-content'>Is this a smile?</p><p class='center-content'><img src='img/Anthony.jpg' height='410' width='730'></img></p>", "expr": "neutral", "time_elapsed": 52289, "internal_node_id": "0.0-1.0-27.0", "key_press": 80, "trial_index": 28, "gend": "male", "condition": 1}, {"rt": 687, "trial_type": "single-stim", "name": "Naomi", "stimulus": "<p class='center-content'>Is this a smile?</p><p class='center-content'><img src='img/Naomi_Reward.jpg' height='410' width='730'></img></p>", "expr": "reward", "time_elapsed": 52979, "internal_node_id": "0.0-1.0-28.0", "key_press": 81, "trial_index": 29, "gend": "female", "condition": 1}, {"rt": 892, "trial_type": "single-stim", "name": "KJ", "stimulus": "<p class='center-content'>Is this a smile?</p><p class='center-content'><img src='img/KJ_Disgust.jpg' height='410' width='730'></img></p>", "expr": "disgust", "time_elapsed": 53873, "internal_node_id": "0.0-1.0-29.0", "key_press": 80, "trial_index": 30, "gend": "female", "condition": 1}, {"rt": 4608, "trial_type": "single-stim", "name": "Anna", "stimulus": "<p class='center-content'>Is this a smile?</p><p class='center-content'><img src='img/Anna.jpg' height='410' width='730'></img></p>", "expr": "neutral", "time_elapsed": 58483, "internal_node_id": "0.0-1.0-30.0", "key_press": 80, "trial_index": 31, "gend": "female", "condition": 1}, {"rt": 659, "trial_type": "single-stim", "name": "Marcus", "stimulus": "<p class='center-content'>Is this a smile?</p><p class='center-content'><img src='img/Marcus_Reward.jpg' height='410' width='730'></img></p>", "expr": "reward", "time_elapsed": 59145, "internal_node_id": "0.0-1.0-31.0", "key_press": 81, "trial_index": 32, "gend": "male", "condition": 1}, {"rt": 512, "trial_type": "single-stim", "name": "Andrew", "stimulus": "<p class='center-content'>Is this a smile?</p><p class='center-content'><img src='img/Andrew_Reward.jpg' height='410' width='730'></img></p>", "expr": "reward", "time_elapsed": 59659, "internal_node_id": "0.0-1.0-32.0", "key_press": 81, "trial_index": 33, "gend": "male", "condition": 1}, {"rt": 609, "trial_type": "single-stim", "name": "KJ", "stimulus": "<p class='center-content'>Is this a smile?</p><p class='center-content'><img src='img/KJ_Dominance.jpg' height='410' width='730'></img></p>", "expr": "dominance", "time_elapsed": 60270, "internal_node_id": "0.0-1.0-33.0", "key_press": 81, "trial_index": 34, "gend": "female", "condition": 1}, {"rt": 624, "trial_type": "single-stim", "name": "Maurice", "stimulus": "<p class='center-content'>Is this a smile?</p><p class='center-content'><img src='img/Maurice_Affiliation.jpg' height='410' width='730'></img></p>", "expr": "affiliation", "time_elapsed": 60896, "internal_node_id": "0.0-1.0-34.0", "key_press": 81, "trial_index": 35, "gend": "male", "condition": 1}, {"rt": 620, "trial_type": "single-stim", "name": "Jessica", "stimulus": "<p class='center-content'>Is this a smile?</p><p class='center-content'><img src='img/Jessica_Disgust.jpg' height='410' width='730'></img></p>", "expr": "disgust", "time_elapsed": 61520, "internal_node_id": "0.0-1.0-35.0", "key_press": 80, "trial_index": 36, "gend": "female", "condition": 1}, {"rt": 816, "trial_type": "single-stim", "name": "Dmonte", "stimulus": "<p class='center-content'>Is this a smile?</p><p class='center-content'><img src='img/Dmonte_Reward.jpg' height='410' width='730'></img></p>", "expr": "reward", "time_elapsed": 62339, "internal_node_id": "0.0-1.0-36.0", "key_press": 81, "trial_index": 37, "gend": "male", "condition": 1}, {"rt": 529, "trial_type": "single-stim", "name": "Jessica", "stimulus": "<p class='center-content'>Is this a smile?</p><p class='center-content'><img src='img/Jessica_Reward.jpg' height='410' width='730'></img></p>", "expr": "reward", "time_elapsed": 62871, "internal_node_id": "0.0-1.0-37.0", "key_press": 81, "trial_index": 38, "gend": "female", "condition": 1}, {"rt": 783, "trial_type": "single-stim", "name": "Ashley", "stimulus": "<p class='center-content'>Is this a smile?</p><p class='center-content'><img src='img/Ashley.jpg' height='410' width='730'></img></p>", "expr": "neutral", "time_elapsed": 63657, "internal_node_id": "0.0-1.0-38.0", "key_press": 80, "trial_index": 39, "gend": "female", "condition": 1}, {"rt": 2370, "trial_type": "single-stim", "name": "Marcus", "stimulus": "<p class='center-content'>Is this a smile?</p><p class='center-content'><img src='img/Marcus_Affiliation.jpg' height='410' width='730'></img></p>", "expr": "affiliation", "time_elapsed": 66030, "internal_node_id": "0.0-1.0-39.0", "key_press": 81, "trial_index": 40, "gend": "male", "condition": 1}, {"rt": 856, "trial_type": "single-stim", "name": "Andrew", "stimulus": "<p class='center-content'>Is this a smile?</p><p class='center-content'><img src='img/Andrew_Affiliation.jpg' height='410' width='730'></img></p>", "expr": "affiliation", "time_elapsed": 66889, "internal_node_id": "0.0-1.0-40.0", "key_press": 81, "trial_index": 41, "gend": "male", "condition": 1}, {"rt": 2122, "trial_type": "single-stim", "name": "Ashley", "stimulus": "<p class='center-content'>Is this a smile?</p><p class='center-content'><img src='img/Ashley_Dominance.jpg' height='410' width='730'></img></p>", "expr": "dominance", "time_elapsed": 69013, "internal_node_id": "0.0-1.0-41.0", "key_press": 80, "trial_index": 42, "gend": "female", "condition": 1}, {"rt": 927, "trial_type": "single-stim", "name": "KJ", "stimulus": "<p class='center-content'>Is this a smile?</p><p class='center-content'><img src='img/KJ.jpg' height='410' width='730'></img></p>", "expr": "neutral", "time_elapsed": 69943, "internal_node_id": "0.0-1.0-42.0", "key_press": 80, "trial_index": 43, "gend": "female", "condition": 1}, {"rt": 584, "trial_type": "single-stim", "name": "Anna", "stimulus": "<p class='center-content'>Is this a smile?</p><p class='center-content'><img src='img/Anna_Affiliation.jpg' height='410' width='730'></img></p>", "expr": "affiliation", "time_elapsed": 70529, "internal_node_id": "0.0-1.0-43.0", "key_press": 81, "trial_index": 44, "gend": "female", "condition": 1}, {"rt": 668, "trial_type": "single-stim", "name": "Andrew", "stimulus": "<p class='center-content'>Is this a smile?</p><p class='center-content'><img src='img/Andrew_Disgust.jpg' height='410' width='730'></img></p>", "expr": "disgust", "time_elapsed": 71200, "internal_node_id": "0.0-1.0-44.0", "key_press": 80, "trial_index": 45, "gend": "male", "condition": 1}, {"rt": 688, "trial_type": "single-stim", "name": "Jessica", "stimulus": "<p class='center-content'>Is this a smile?</p><p class='center-content'><img src='img/Jessica.jpg' height='410' width='730'></img></p>", "expr": "neutral", "time_elapsed": 71890, "internal_node_id": "0.0-1.0-45.0", "key_press": 80, "trial_index": 46, "gend": "female", "condition": 1}, {"rt": 2357, "trial_type": "single-stim", "name": "Dmonte", "stimulus": "<p class='center-content'>Is this a smile?</p><p class='center-content'><img src='img/Dmonte_Dominance.jpg' height='410' width='730'></img></p>", "expr": "dominance", "time_elapsed": 74250, "internal_node_id": "0.0-1.0-46.0", "key_press": 80, "trial_index": 47, "gend": "male", "condition": 1}, {"rt": 697, "trial_type": "single-stim", "name": "Jessica", "stimulus": "<p class='center-content'>Is this a smile?</p><p class='center-content'><img src='img/Jessica_Dominance.jpg' height='410' width='730'></img></p>", "expr": "dominance", "time_elapsed": 74949, "internal_node_id": "0.0-1.0-47.0", "key_press": 81, "trial_index": 48, "gend": "female", "condition": 1}, {"rt": 995, "trial_type": "single-stim", "name": "Naomi", "stimulus": "<p class='center-content'>Is this a smile?</p><p class='center-content'><img src='img/Naomi.jpg' height='410' width='730'></img></p>", "expr": "neutral", "time_elapsed": 75948, "internal_node_id": "0.0-1.0-48.0", "key_press": 81, "trial_index": 49, "gend": "female", "condition": 1}, {"rt": 1373, "trial_type": "single-stim", "name": "Zach", "stimulus": "<p class='center-content'>Is this a smile?</p><p class='center-content'><img src='img/Zach_Dominance.jpg' height='410' width='730'></img></p>", "expr": "dominance", "time_elapsed": 77323, "internal_node_id": "0.0-1.0-49.0", "key_press": 81, "trial_index": 50, "gend": "male", "condition": 1}, {"rt": 1196, "trial_type": "single-stim", "name": "Lulu", "stimulus": "<p class='center-content'>Is this a smile?</p><p class='center-content'><img src='img/Lulu_Affiliation.jpg' height='410' width='730'></img></p>", "expr": "affiliation", "time_elapsed": 78521, "internal_node_id": "0.0-1.0-50.0", "key_press": 80, "trial_index": 51, "gend": "female", "condition": 1}, {"rt": 762, "trial_type": "single-stim", "name": "Lulu", "stimulus": "<p class='center-content'>Is this a smile?</p><p class='center-content'><img src='img/Lulu_Disgust.jpg' height='410' width='730'></img></p>", "expr": "disgust", "time_elapsed": 79286, "internal_node_id": "0.0-1.0-51.0", "key_press": 80, "trial_index": 52, "gend": "female", "condition": 1}, {"rt": 702, "trial_type": "single-stim", "name": "Naomi", "stimulus": "<p class='center-content'>Is this a smile?</p><p class='center-content'><img src='img/Naomi_Affiliation.jpg' height='410' width='730'></img></p>", "expr": "affiliation", "time_elapsed": 79990, "internal_node_id": "0.0-1.0-52.0", "key_press": 81, "trial_index": 53, "gend": "female", "condition": 1}, {"rt": 585, "trial_type": "single-stim", "name": "Mary", "stimulus": "<p class='center-content'>Is this a smile?</p><p class='center-content'><img src='img/Mary_Reward.jpg' height='410' width='730'></img></p>", "expr": "reward", "time_elapsed": 80577, "internal_node_id": "0.0-1.0-53.0", "key_press": 81, "trial_index": 54, "gend": "female", "condition": 1}, {"rt": 488, "trial_type": "single-stim", "name": "Maurice", "stimulus": "<p class='center-content'>Is this a smile?</p><p class='center-content'><img src='img/Maurice_Reward.jpg' height='410' width='730'></img></p>", "expr": "reward", "time_elapsed": 81067, "internal_node_id": "0.0-1.0-54.0", "key_press": 81, "trial_index": 55, "gend": "male", "condition": 1}, {"rt": 534, "trial_type": "single-stim", "name": "Jourdan", "stimulus": "<p class='center-content'>Is this a smile?</p><p class='center-content'><img src='img/Jourdan_Disgust.jpg' height='410' width='730'></img></p>", "expr": "disgust", "time_elapsed": 81603, "internal_node_id": "0.0-1.0-55.0", "key_press": 81, "trial_index": 56, "gend": "male", "condition": 1}, {"rt": 1476, "trial_type": "single-stim", "name": "Anna", "stimulus": "<p class='center-content'>Is this a smile?</p><p class='center-content'><img src='img/Anna_Dominance.jpg' height='410' width='730'></img></p>", "expr": "dominance", "time_elapsed": 83082, "internal_node_id": "0.0-1.0-56.0", "key_press": 81, "trial_index": 57, "gend": "female", "condition": 1}, {"rt": 986, "trial_type": "single-stim", "name": "Maurice", "stimulus": "<p class='center-content'>Is this a smile?</p><p class='center-content'><img src='img/Maurice_Dominance.jpg' height='410' width='730'></img></p>", "expr": "dominance", "time_elapsed": 84070, "internal_node_id": "0.0-1.0-57.0", "key_press": 81, "trial_index": 58, "gend": "male", "condition": 1}, {"rt": 1253, "trial_type": "single-stim", "name": "KJ", "stimulus": "<p class='center-content'>Is this a smile?</p><p class='center-content'><img src='img/KJ_Affiliation.jpg' height='410' width='730'></img></p>", "expr": "affiliation", "time_elapsed": 85325, "internal_node_id": "0.0-1.0-58.0", "key_press": 81, "trial_index": 59, "gend": "female", "condition": 1}, {"rt": 950, "trial_type": "single-stim", "name": "Zach", "stimulus": "<p class='center-content'>Is this a smile?</p><p class='center-content'><img src='img/Zach_Affiliation.jpg' height='410' width='730'></img></p>", "expr": "affiliation", "time_elapsed": 86278, "internal_node_id": "0.0-1.0-59.0", "key_press": 81, "trial_index": 60, "gend": "male", "condition": 1}, {"rt": 699, "trial_type": "single-stim", "name": "Lulu", "stimulus": "<p class='center-content'>Is this a smile?</p><p class='center-content'><img src='img/Lulu.jpg' height='410' width='730'></img></p>", "expr": "neutral", "time_elapsed": 86979, "internal_node_id": "0.0-1.0-60.0", "key_press": 80, "trial_index": 61, "gend": "female", "condition": 1}, {"rt": 891, "trial_type": "single-stim", "name": "Jourdan", "stimulus": "<p class='center-content'>Is this a smile?</p><p class='center-content'><img src='img/Jourdan.jpg' height='410' width='730'></img></p>", "expr": "neutral", "time_elapsed": 87872, "internal_node_id": "0.0-1.0-61.0", "key_press": 80, "trial_index": 62, "gend": "male", "condition": 1}, {"rt": 1694, "trial_type": "single-stim", "name": "Mary", "stimulus": "<p class='center-content'>Is this a smile?</p><p class='center-content'><img src='img/Mary_Affiliation.jpg' height='410' width='730'></img></p>", "expr": "affiliation", "time_elapsed": 89569, "internal_node_id": "0.0-1.0-62.0", "key_press": 81, "trial_index": 63, "gend": "female", "condition": 1}, {"rt": 622, "trial_type": "single-stim", "name": "Joeseph", "stimulus": "<p class='center-content'>Is this a smile?</p><p class='center-content'><img src='img/Joeseph_Disgust.jpg' height='410' width='730'></img></p>", "expr": "disgust", "time_elapsed": 90193, "internal_node_id": "0.0-1.0-63.0", "key_press": 80, "trial_index": 64, "gend": "male", "condition": 1}, {"rt": 896, "trial_type": "single-stim", "name": "Lulu", "stimulus": "<p class='center-content'>Is this a smile?</p><p class='center-content'><img src='img/Lulu_Reward.jpg' height='410' width='730'></img></p>", "expr": "reward", "time_elapsed": 91091, "internal_node_id": "0.0-1.0-64.0", "key_press": 81, "trial_index": 65, "gend": "female", "condition": 1}, {"rt": 1762, "trial_type": "single-stim", "name": "Marcus", "stimulus": "<p class='center-content'>Is this a smile?</p><p class='center-content'><img src='img/Marcus_Dominance.jpg' height='410' width='730'></img></p>", "expr": "dominance", "time_elapsed": 92855, "internal_node_id": "0.0-1.0-65.0", "key_press": 81, "trial_index": 66, "gend": "male", "condition": 1}, {"rt": 567, "trial_type": "single-stim", "name": "Dmonte", "stimulus": "<p class='center-content'>Is this a smile?</p><p class='center-content'><img src='img/Dmonte_Disgust.jpg' height='410' width='730'></img></p>", "expr": "disgust", "time_elapsed": 93425, "internal_node_id": "0.0-1.0-66.0", "key_press": 80, "trial_index": 67, "gend": "male", "condition": 1}, {"rt": 1734, "trial_type": "single-stim", "name": "Lulu", "stimulus": "<p class='center-content'>Is this a smile?</p><p class='center-content'><img src='img/Lulu_Dominance.jpg' height='410' width='730'></img></p>", "expr": "dominance", "time_elapsed": 95160, "internal_node_id": "0.0-1.0-67.0", "key_press": 81, "trial_index": 68, "gend": "female", "condition": 1}, {"rt": 726, "trial_type": "single-stim", "name": "Maurice", "stimulus": "<p class='center-content'>Is this a smile?</p><p class='center-content'><img src='img/Maurice.jpg' height='410' width='730'></img></p>", "expr": "neutral", "time_elapsed": 95888, "internal_node_id": "0.0-1.0-68.0", "key_press": 80, "trial_index": 69, "gend": "male", "condition": 1}, {"rt": 862, "trial_type": "single-stim", "name": "Marcus", "stimulus": "<p class='center-content'>Is this a smile?</p><p class='center-content'><img src='img/Marcus_Disgust.jpg' height='410' width='730'></img></p>", "expr": "disgust", "time_elapsed": 96753, "internal_node_id": "0.0-1.0-69.0", "key_press": 80, "trial_index": 70, "gend": "male", "condition": 1}, {"rt": 2470, "trial_type": "single-stim", "name": "Andrew", "stimulus": "<p class='center-content'>Is this a smile?</p><p class='center-content'><img src='img/Andrew_Dominance.jpg' height='410' width='730'></img></p>", "expr": "dominance", "time_elapsed": 99226, "internal_node_id": "0.0-1.0-70.0", "key_press": 81, "trial_index": 71, "gend": "male", "condition": 1}, {"rt": 539, "trial_type": "single-stim", "name": "Dmonte", "stimulus": "<p class='center-content'>Is this a smile?</p><p class='center-content'><img src='img/Dmonte.jpg' height='410' width='730'></img></p>", "expr": "neutral", "time_elapsed": 99768, "internal_node_id": "0.0-1.0-71.0", "key_press": 80, "trial_index": 72, "gend": "male", "condition": 1}, {"rt": 675, "trial_type": "single-stim", "name": "Jourdan", "stimulus": "<p class='center-content'>Is this a smile?</p><p class='center-content'><img src='img/Jourdan_Affiliation.jpg' height='410' width='730'></img></p>", "expr": "affiliation", "time_elapsed": 100444, "internal_node_id": "0.0-1.0-72.0", "key_press": 81, "trial_index": 73, "gend": "male", "condition": 1}, {"rt": 756, "trial_type": "single-stim", "name": "Zach", "stimulus": "<p class='center-content'>Is this a smile?</p><p class='center-content'><img src='img/Zach.jpg' height='410' width='730'></img></p>", "expr": "neutral", "time_elapsed": 101203, "internal_node_id": "0.0-1.0-73.0", "key_press": 80, "trial_index": 74, "gend": "male", "condition": 1}, {"rt": 498, "trial_type": "single-stim", "name": "Andrew", "stimulus": "<p class='center-content'>Is this a smile?</p><p class='center-content'><img src='img/Andrew.jpg' height='410' width='730'></img></p>", "expr": "neutral", "time_elapsed": 101702, "internal_node_id": "0.0-1.0-74.0", "key_press": 80, "trial_index": 75, "gend": "male", "condition": 1}, {"rt": 7231, "trial_type": "survey-multi-choice", "responses": "{\"Q0\":\"Male\",\"Q1\":\"Black/African American\",\"Q2\":\"Right\"}", "time_elapsed": 108946, "internal_node_id": "0.0-2.0", "trial_index": 76}, {"rt": 5425, "trial_type": "survey-text", "responses": "{\"Q0\":\"None\"}", "time_elapsed": 115376, "internal_node_id": "0.0-3.0", "trial_index": 77}, {"rt": 4398, "trial_type": "text", "time_elapsed": 120777, "internal_node_id": "0.0-4.0", "key_press": 32, "trial_index": 78}]}, "AcceptTime": "2017-12-05T19:37:14Z", "HITId": "34R0BODSP1Z5QH2DYXK5UL8I6WTE5H", "Assignment": "", "AssignmentStatus": "Approved", "SubmitTime": "2017-12-05T19:42:11Z"}