{"ApprovalTime": "2017-12-05T16:54:18Z", "AutoApprovalTime": "2017-12-05T16:53:49Z", "AssignmentId": "37TD41K0AH9UM5E345WJMSEW4N4SCA", "WorkerId": "anon12", "answers": {"data": [{"rt": 8803, "trial_type": "text", "time_elapsed": 8807, "internal_node_id": "0.0-0.0", "key_press": 32, "trial_index": 0}, {"rt": 2036, "trial_type": "single-stim", "name": "Jourdan", "stimulus": "<p class='center-content'>Is this a smile?</p><p class='center-content'><img src='img/Jourdan_Dominance.jpg' height='410' width='730'></img></p>", "expr": "dominance", "time_elapsed": 12849, "internal_node_id": "0.0-1.0-0.0", "key_press": 80, "trial_index": 1, "gend": "male", "condition": 1}, {"rt": 816, "trial_type": "single-stim", "name": "Maurice", "stimulus": "<p class='center-content'>Is this a smile?</p><p class='center-content'><img src='img/Maurice_Disgust.jpg' height='410' width='730'></img></p>", "expr": "disgust", "time_elapsed": 13672, "internal_node_id": "0.0-1.0-1.0", "key_press": 80, "trial_index": 2, "gend": "male", "condition": 1}, {"rt": 794, "trial_type": "single-stim", "name": "Andrew", "stimulus": "<p class='center-content'>Is this a smile?</p><p class='center-content'><img src='img/Andrew_Reward.jpg' height='410' width='730'></img></p>", "expr": "reward", "time_elapsed": 14471, "internal_node_id": "0.0-1.0-2.0", "key_press": 81, "trial_index": 3, "gend": "male", "condition": 1}, {"rt": 673, "trial_type": "single-stim", "name": "Zach", "stimulus": "<p class='center-content'>Is this a smile?</p><p class='center-content'><img src='img/Zach_Reward.jpg' height='410' width='730'></img></p>", "expr": "reward", "time_elapsed": 15151, "internal_node_id": "0.0-1.0-3.0", "key_press": 81, "trial_index": 4, "gend": "male", "condition": 1}, {"rt": 1203, "trial_type": "single-stim", "name": "Maurice", "stimulus": "<p class='center-content'>Is this a smile?</p><p class='center-content'><img src='img/Maurice.jpg' height='410' width='730'></img></p>", "expr": "neutral", "time_elapsed": 16360, "internal_node_id": "0.0-1.0-4.0", "key_press": 81, "trial_index": 5, "gend": "male", "condition": 1}, {"rt": 969, "trial_type": "single-stim", "name": "Ashley", "stimulus": "<p class='center-content'>Is this a smile?</p><p class='center-content'><img src='img/Ashley.jpg' height='410' width='730'></img></p>", "expr": "neutral", "time_elapsed": 17334, "internal_node_id": "0.0-1.0-5.0", "key_press": 80, "trial_index": 6, "gend": "female", "condition": 1}, {"rt": 775, "trial_type": "single-stim", "name": "Marcus", "stimulus": "<p class='center-content'>Is this a smile?</p><p class='center-content'><img src='img/Marcus_Affiliation.jpg' height='410' width='730'></img></p>", "expr": "affiliation", "time_elapsed": 18112, "internal_node_id": "0.0-1.0-6.0", "key_press": 81, "trial_index": 7, "gend": "male", "condition": 1}, {"rt": 862, "trial_type": "single-stim", "name": "Anna", "stimulus": "<p class='center-content'>Is this a smile?</p><p class='center-content'><img src='img/Anna_Affiliation.jpg' height='410' width='730'></img></p>", "expr": "affiliation", "time_elapsed": 18978, "internal_node_id": "0.0-1.0-7.0", "key_press": 81, "trial_index": 8, "gend": "female", "condition": 1}, {"rt": 809, "trial_type": "single-stim", "name": "Mary", "stimulus": "<p class='center-content'>Is this a smile?</p><p class='center-content'><img src='img/Mary_Disgust.jpg' height='410' width='730'></img></p>", "expr": "disgust", "time_elapsed": 19791, "internal_node_id": "0.0-1.0-8.0", "key_press": 80, "trial_index": 9, "gend": "female", "condition": 1}, {"rt": 1218, "trial_type": "single-stim", "name": "Dmonte", "stimulus": "<p class='center-content'>Is this a smile?</p><p class='center-content'><img src='img/Dmonte.jpg' height='410' width='730'></img></p>", "expr": "neutral", "time_elapsed": 21016, "internal_node_id": "0.0-1.0-9.0", "key_press": 80, "trial_index": 10, "gend": "male", "condition": 1}, {"rt": 834, "trial_type": "single-stim", "name": "Anna", "stimulus": "<p class='center-content'>Is this a smile?</p><p class='center-content'><img src='img/Anna_Disgust.jpg' height='410' width='730'></img></p>", "expr": "disgust", "time_elapsed": 21855, "internal_node_id": "0.0-1.0-10.0", "key_press": 80, "trial_index": 11, "gend": "female", "condition": 1}, {"rt": 723, "trial_type": "single-stim", "name": "Mary", "stimulus": "<p class='center-content'>Is this a smile?</p><p class='center-content'><img src='img/Mary_Reward.jpg' height='410' width='730'></img></p>", "expr": "reward", "time_elapsed": 22583, "internal_node_id": "0.0-1.0-11.0", "key_press": 81, "trial_index": 12, "gend": "female", "condition": 1}, {"rt": 683, "trial_type": "single-stim", "name": "Marcus", "stimulus": "<p class='center-content'>Is this a smile?</p><p class='center-content'><img src='img/Marcus_Reward.jpg' height='410' width='730'></img></p>", "expr": "reward", "time_elapsed": 23271, "internal_node_id": "0.0-1.0-12.0", "key_press": 81, "trial_index": 13, "gend": "male", "condition": 1}, {"rt": 858, "trial_type": "single-stim", "name": "Andrew", "stimulus": "<p class='center-content'>Is this a smile?</p><p class='center-content'><img src='img/Andrew.jpg' height='410' width='730'></img></p>", "expr": "neutral", "time_elapsed": 24136, "internal_node_id": "0.0-1.0-13.0", "key_press": 80, "trial_index": 14, "gend": "male", "condition": 1}, {"rt": 658, "trial_type": "single-stim", "name": "Zach", "stimulus": "<p class='center-content'>Is this a smile?</p><p class='center-content'><img src='img/Zach_Disgust.jpg' height='410' width='730'></img></p>", "expr": "disgust", "time_elapsed": 24799, "internal_node_id": "0.0-1.0-14.0", "key_press": 80, "trial_index": 15, "gend": "male", "condition": 1}, {"rt": 3010, "trial_type": "single-stim", "name": "Dmonte", "stimulus": "<p class='center-content'>Is this a smile?</p><p class='center-content'><img src='img/Dmonte_Dominance.jpg' height='410' width='730'></img></p>", "expr": "dominance", "time_elapsed": 27815, "internal_node_id": "0.0-1.0-15.0", "key_press": 80, "trial_index": 16, "gend": "male", "condition": 1}, {"rt": 706, "trial_type": "single-stim", "name": "Jessica", "stimulus": "<p class='center-content'>Is this a smile?</p><p class='center-content'><img src='img/Jessica_Reward.jpg' height='410' width='730'></img></p>", "expr": "reward", "time_elapsed": 28526, "internal_node_id": "0.0-1.0-16.0", "key_press": 81, "trial_index": 17, "gend": "female", "condition": 1}, {"rt": 1877, "trial_type": "single-stim", "name": "Jessica", "stimulus": "<p class='center-content'>Is this a smile?</p><p class='center-content'><img src='img/Jessica_Dominance.jpg' height='410' width='730'></img></p>", "expr": "dominance", "time_elapsed": 30409, "internal_node_id": "0.0-1.0-17.0", "key_press": 80, "trial_index": 18, "gend": "female", "condition": 1}, {"rt": 1768, "trial_type": "single-stim", "name": "Zach", "stimulus": "<p class='center-content'>Is this a smile?</p><p class='center-content'><img src='img/Zach_Dominance.jpg' height='410' width='730'></img></p>", "expr": "dominance", "time_elapsed": 32184, "internal_node_id": "0.0-1.0-18.0", "key_press": 80, "trial_index": 19, "gend": "male", "condition": 1}, {"rt": 1201, "trial_type": "single-stim", "name": "Mary", "stimulus": "<p class='center-content'>Is this a smile?</p><p class='center-content'><img src='img/Mary.jpg' height='410' width='730'></img></p>", "expr": "neutral", "time_elapsed": 33388, "internal_node_id": "0.0-1.0-19.0", "key_press": 80, "trial_index": 20, "gend": "female", "condition": 1}, {"rt": 655, "trial_type": "single-stim", "name": "Dmonte", "stimulus": "<p class='center-content'>Is this a smile?</p><p class='center-content'><img src='img/Dmonte_Affiliation.jpg' height='410' width='730'></img></p>", "expr": "affiliation", "time_elapsed": 34047, "internal_node_id": "0.0-1.0-20.0", "key_press": 81, "trial_index": 21, "gend": "male", "condition": 1}, {"rt": 667, "trial_type": "single-stim", "name": "Joeseph", "stimulus": "<p class='center-content'>Is this a smile?</p><p class='center-content'><img src='img/Joeseph_Affiliation.jpg' height='410' width='730'></img></p>", "expr": "affiliation", "time_elapsed": 34718, "internal_node_id": "0.0-1.0-21.0", "key_press": 81, "trial_index": 22, "gend": "male", "condition": 1}, {"rt": 1035, "trial_type": "single-stim", "name": "Lulu", "stimulus": "<p class='center-content'>Is this a smile?</p><p class='center-content'><img src='img/Lulu.jpg' height='410' width='730'></img></p>", "expr": "neutral", "time_elapsed": 35758, "internal_node_id": "0.0-1.0-22.0", "key_press": 80, "trial_index": 23, "gend": "female", "condition": 1}, {"rt": 1236, "trial_type": "single-stim", "name": "Marcus", "stimulus": "<p class='center-content'>Is this a smile?</p><p class='center-content'><img src='img/Marcus_Dominance.jpg' height='410' width='730'></img></p>", "expr": "dominance", "time_elapsed": 36997, "internal_node_id": "0.0-1.0-23.0", "key_press": 80, "trial_index": 24, "gend": "male", "condition": 1}, {"rt": 743, "trial_type": "single-stim", "name": "Marcus", "stimulus": "<p class='center-content'>Is this a smile?</p><p class='center-content'><img src='img/Marcus_Disgust.jpg' height='410' width='730'></img></p>", "expr": "disgust", "time_elapsed": 37743, "internal_node_id": "0.0-1.0-24.0", "key_press": 80, "trial_index": 25, "gend": "male", "condition": 1}, {"rt": 1011, "trial_type": "single-stim", "name": "Anna", "stimulus": "<p class='center-content'>Is this a smile?</p><p class='center-content'><img src='img/Anna_Dominance.jpg' height='410' width='730'></img></p>", "expr": "dominance", "time_elapsed": 38759, "internal_node_id": "0.0-1.0-25.0", "key_press": 81, "trial_index": 26, "gend": "female", "condition": 1}, {"rt": 1124, "trial_type": "single-stim", "name": "Maurice", "stimulus": "<p class='center-content'>Is this a smile?</p><p class='center-content'><img src='img/Maurice_Affiliation.jpg' height='410' width='730'></img></p>", "expr": "affiliation", "time_elapsed": 39887, "internal_node_id": "0.0-1.0-26.0", "key_press": 81, "trial_index": 27, "gend": "male", "condition": 1}, {"rt": 1013, "trial_type": "single-stim", "name": "Jourdan", "stimulus": "<p class='center-content'>Is this a smile?</p><p class='center-content'><img src='img/Jourdan.jpg' height='410' width='730'></img></p>", "expr": "neutral", "time_elapsed": 40904, "internal_node_id": "0.0-1.0-27.0", "key_press": 80, "trial_index": 28, "gend": "male", "condition": 1}, {"rt": 658, "trial_type": "single-stim", "name": "Jourdan", "stimulus": "<p class='center-content'>Is this a smile?</p><p class='center-content'><img src='img/Jourdan_Reward.jpg' height='410' width='730'></img></p>", "expr": "reward", "time_elapsed": 41566, "internal_node_id": "0.0-1.0-28.0", "key_press": 81, "trial_index": 29, "gend": "male", "condition": 1}, {"rt": 1073, "trial_type": "single-stim", "name": "Anthony", "stimulus": "<p class='center-content'>Is this a smile?</p><p class='center-content'><img src='img/Anthony_Affiliation.jpg' height='410' width='730'></img></p>", "expr": "affiliation", "time_elapsed": 42645, "internal_node_id": "0.0-1.0-29.0", "key_press": 81, "trial_index": 30, "gend": "male", "condition": 1}, {"rt": 1007, "trial_type": "single-stim", "name": "Naomi", "stimulus": "<p class='center-content'>Is this a smile?</p><p class='center-content'><img src='img/Naomi_Dominance.jpg' height='410' width='730'></img></p>", "expr": "dominance", "time_elapsed": 43654, "internal_node_id": "0.0-1.0-30.0", "key_press": 81, "trial_index": 31, "gend": "female", "condition": 1}, {"rt": 859, "trial_type": "single-stim", "name": "Zach", "stimulus": "<p class='center-content'>Is this a smile?</p><p class='center-content'><img src='img/Zach.jpg' height='410' width='730'></img></p>", "expr": "neutral", "time_elapsed": 44518, "internal_node_id": "0.0-1.0-31.0", "key_press": 80, "trial_index": 32, "gend": "male", "condition": 1}, {"rt": 763, "trial_type": "single-stim", "name": "Joeseph", "stimulus": "<p class='center-content'>Is this a smile?</p><p class='center-content'><img src='img/Joeseph_Disgust.jpg' height='410' width='730'></img></p>", "expr": "disgust", "time_elapsed": 45286, "internal_node_id": "0.0-1.0-32.0", "key_press": 80, "trial_index": 33, "gend": "male", "condition": 1}, {"rt": 907, "trial_type": "single-stim", "name": "Naomi", "stimulus": "<p class='center-content'>Is this a smile?</p><p class='center-content'><img src='img/Naomi_Affiliation.jpg' height='410' width='730'></img></p>", "expr": "affiliation", "time_elapsed": 46198, "internal_node_id": "0.0-1.0-33.0", "key_press": 81, "trial_index": 34, "gend": "female", "condition": 1}, {"rt": 635, "trial_type": "single-stim", "name": "Dmonte", "stimulus": "<p class='center-content'>Is this a smile?</p><p class='center-content'><img src='img/Dmonte_Reward.jpg' height='410' width='730'></img></p>", "expr": "reward", "time_elapsed": 46838, "internal_node_id": "0.0-1.0-34.0", "key_press": 81, "trial_index": 35, "gend": "male", "condition": 1}, {"rt": 714, "trial_type": "single-stim", "name": "Marcus", "stimulus": "<p class='center-content'>Is this a smile?</p><p class='center-content'><img src='img/Marcus.jpg' height='410' width='730'></img></p>", "expr": "neutral", "time_elapsed": 47557, "internal_node_id": "0.0-1.0-35.0", "key_press": 81, "trial_index": 36, "gend": "male", "condition": 1}, {"rt": 644, "trial_type": "single-stim", "name": "Zach", "stimulus": "<p class='center-content'>Is this a smile?</p><p class='center-content'><img src='img/Zach_Affiliation.jpg' height='410' width='730'></img></p>", "expr": "affiliation", "time_elapsed": 48206, "internal_node_id": "0.0-1.0-36.0", "key_press": 81, "trial_index": 37, "gend": "male", "condition": 1}, {"rt": 923, "trial_type": "single-stim", "name": "Jessica", "stimulus": "<p class='center-content'>Is this a smile?</p><p class='center-content'><img src='img/Jessica_Affiliation.jpg' height='410' width='730'></img></p>", "expr": "affiliation", "time_elapsed": 49134, "internal_node_id": "0.0-1.0-37.0", "key_press": 81, "trial_index": 38, "gend": "female", "condition": 1}, {"rt": 643, "trial_type": "single-stim", "name": "Andrew", "stimulus": "<p class='center-content'>Is this a smile?</p><p class='center-content'><img src='img/Andrew_Affiliation.jpg' height='410' width='730'></img></p>", "expr": "affiliation", "time_elapsed": 49781, "internal_node_id": "0.0-1.0-38.0", "key_press": 81, "trial_index": 39, "gend": "male", "condition": 1}, {"rt": 690, "trial_type": "single-stim", "name": "Lulu", "stimulus": "<p class='center-content'>Is this a smile?</p><p class='center-content'><img src='img/Lulu_Disgust.jpg' height='410' width='730'></img></p>", "expr": "disgust", "time_elapsed": 50476, "internal_node_id": "0.0-1.0-39.0", "key_press": 80, "trial_index": 40, "gend": "female", "condition": 1}, {"rt": 1181, "trial_type": "single-stim", "name": "Ashley", "stimulus": "<p class='center-content'>Is this a smile?</p><p class='center-content'><img src='img/Ashley_Dominance.jpg' height='410' width='730'></img></p>", "expr": "dominance", "time_elapsed": 51660, "internal_node_id": "0.0-1.0-40.0", "key_press": 80, "trial_index": 41, "gend": "female", "condition": 1}, {"rt": 1186, "trial_type": "single-stim", "name": "Naomi", "stimulus": "<p class='center-content'>Is this a smile?</p><p class='center-content'><img src='img/Naomi.jpg' height='410' width='730'></img></p>", "expr": "neutral", "time_elapsed": 52852, "internal_node_id": "0.0-1.0-41.0", "key_press": 81, "trial_index": 42, "gend": "female", "condition": 1}, {"rt": 1720, "trial_type": "single-stim", "name": "Anna", "stimulus": "<p class='center-content'>Is this a smile?</p><p class='center-content'><img src='img/Anna.jpg' height='410' width='730'></img></p>", "expr": "neutral", "time_elapsed": 54573, "internal_node_id": "0.0-1.0-42.0", "key_press": 80, "trial_index": 43, "gend": "female", "condition": 1}, {"rt": 2422, "trial_type": "single-stim", "name": "Jessica", "stimulus": "<p class='center-content'>Is this a smile?</p><p class='center-content'><img src='img/Jessica_Disgust.jpg' height='410' width='730'></img></p>", "expr": "disgust", "time_elapsed": 56998, "internal_node_id": "0.0-1.0-43.0", "key_press": 81, "trial_index": 44, "gend": "female", "condition": 1}, {"rt": 2043, "trial_type": "single-stim", "name": "KJ", "stimulus": "<p class='center-content'>Is this a smile?</p><p class='center-content'><img src='img/KJ_Affiliation.jpg' height='410' width='730'></img></p>", "expr": "affiliation", "time_elapsed": 59046, "internal_node_id": "0.0-1.0-44.0", "key_press": 81, "trial_index": 45, "gend": "female", "condition": 1}, {"rt": 841, "trial_type": "single-stim", "name": "Mary", "stimulus": "<p class='center-content'>Is this a smile?</p><p class='center-content'><img src='img/Mary_Affiliation.jpg' height='410' width='730'></img></p>", "expr": "affiliation", "time_elapsed": 59894, "internal_node_id": "0.0-1.0-45.0", "key_press": 81, "trial_index": 46, "gend": "female", "condition": 1}, {"rt": 1673, "trial_type": "single-stim", "name": "KJ", "stimulus": "<p class='center-content'>Is this a smile?</p><p class='center-content'><img src='img/KJ_Reward.jpg' height='410' width='730'></img></p>", "expr": "reward", "time_elapsed": 61572, "internal_node_id": "0.0-1.0-46.0", "key_press": 81, "trial_index": 47, "gend": "female", "condition": 1}, {"rt": 1381, "trial_type": "single-stim", "name": "Jessica", "stimulus": "<p class='center-content'>Is this a smile?</p><p class='center-content'><img src='img/Jessica.jpg' height='410' width='730'></img></p>", "expr": "neutral", "time_elapsed": 62956, "internal_node_id": "0.0-1.0-47.0", "key_press": 80, "trial_index": 48, "gend": "female", "condition": 1}, {"rt": 875, "trial_type": "single-stim", "name": "Ashley", "stimulus": "<p class='center-content'>Is this a smile?</p><p class='center-content'><img src='img/Ashley_Affiliation.jpg' height='410' width='730'></img></p>", "expr": "affiliation", "time_elapsed": 63836, "internal_node_id": "0.0-1.0-48.0", "key_press": 81, "trial_index": 49, "gend": "female", "condition": 1}, {"rt": 759, "trial_type": "single-stim", "name": "Joeseph", "stimulus": "<p class='center-content'>Is this a smile?</p><p class='center-content'><img src='img/Joeseph.jpg' height='410' width='730'></img></p>", "expr": "neutral", "time_elapsed": 64597, "internal_node_id": "0.0-1.0-49.0", "key_press": 80, "trial_index": 50, "gend": "male", "condition": 1}, {"rt": 757, "trial_type": "single-stim", "name": "KJ", "stimulus": "<p class='center-content'>Is this a smile?</p><p class='center-content'><img src='img/KJ_Disgust.jpg' height='410' width='730'></img></p>", "expr": "disgust", "time_elapsed": 65358, "internal_node_id": "0.0-1.0-50.0", "key_press": 80, "trial_index": 51, "gend": "female", "condition": 1}, {"rt": 666, "trial_type": "single-stim", "name": "Ashley", "stimulus": "<p class='center-content'>Is this a smile?</p><p class='center-content'><img src='img/Ashley_Disgust.jpg' height='410' width='730'></img></p>", "expr": "disgust", "time_elapsed": 66029, "internal_node_id": "0.0-1.0-51.0", "key_press": 80, "trial_index": 52, "gend": "female", "condition": 1}, {"rt": 771, "trial_type": "single-stim", "name": "Naomi", "stimulus": "<p class='center-content'>Is this a smile?</p><p class='center-content'><img src='img/Naomi_Reward.jpg' height='410' width='730'></img></p>", "expr": "reward", "time_elapsed": 66805, "internal_node_id": "0.0-1.0-52.0", "key_press": 81, "trial_index": 53, "gend": "female", "condition": 1}, {"rt": 1131, "trial_type": "single-stim", "name": "KJ", "stimulus": "<p class='center-content'>Is this a smile?</p><p class='center-content'><img src='img/KJ.jpg' height='410' width='730'></img></p>", "expr": "neutral", "time_elapsed": 67941, "internal_node_id": "0.0-1.0-53.0", "key_press": 80, "trial_index": 54, "gend": "female", "condition": 1}, {"rt": 1106, "trial_type": "single-stim", "name": "Jourdan", "stimulus": "<p class='center-content'>Is this a smile?</p><p class='center-content'><img src='img/Jourdan_Disgust.jpg' height='410' width='730'></img></p>", "expr": "disgust", "time_elapsed": 69053, "internal_node_id": "0.0-1.0-54.0", "key_press": 80, "trial_index": 55, "gend": "male", "condition": 1}, {"rt": 1011, "trial_type": "single-stim", "name": "Anthony", "stimulus": "<p class='center-content'>Is this a smile?</p><p class='center-content'><img src='img/Anthony_Dominance.jpg' height='410' width='730'></img></p>", "expr": "dominance", "time_elapsed": 70069, "internal_node_id": "0.0-1.0-55.0", "key_press": 80, "trial_index": 56, "gend": "male", "condition": 1}, {"rt": 803, "trial_type": "single-stim", "name": "Anna", "stimulus": "<p class='center-content'>Is this a smile?</p><p class='center-content'><img src='img/Anna_Reward.jpg' height='410' width='730'></img></p>", "expr": "reward", "time_elapsed": 70876, "internal_node_id": "0.0-1.0-56.0", "key_press": 81, "trial_index": 57, "gend": "female", "condition": 1}, {"rt": 674, "trial_type": "single-stim", "name": "Andrew", "stimulus": "<p class='center-content'>Is this a smile?</p><p class='center-content'><img src='img/Andrew_Dominance.jpg' height='410' width='730'></img></p>", "expr": "dominance", "time_elapsed": 71558, "internal_node_id": "0.0-1.0-57.0", "key_press": 81, "trial_index": 58, "gend": "male", "condition": 1}, {"rt": 844, "trial_type": "single-stim", "name": "Lulu", "stimulus": "<p class='center-content'>Is this a smile?</p><p class='center-content'><img src='img/Lulu_Affiliation.jpg' height='410' width='730'></img></p>", "expr": "affiliation", "time_elapsed": 72409, "internal_node_id": "0.0-1.0-58.0", "key_press": 81, "trial_index": 59, "gend": "female", "condition": 1}, {"rt": 721, "trial_type": "single-stim", "name": "Lulu", "stimulus": "<p class='center-content'>Is this a smile?</p><p class='center-content'><img src='img/Lulu_Dominance.jpg' height='410' width='730'></img></p>", "expr": "dominance", "time_elapsed": 73133, "internal_node_id": "0.0-1.0-59.0", "key_press": 81, "trial_index": 60, "gend": "female", "condition": 1}, {"rt": 699, "trial_type": "single-stim", "name": "Anthony", "stimulus": "<p class='center-content'>Is this a smile?</p><p class='center-content'><img src='img/Anthony_Disgust.jpg' height='410' width='730'></img></p>", "expr": "disgust", "time_elapsed": 73837, "internal_node_id": "0.0-1.0-60.0", "key_press": 80, "trial_index": 61, "gend": "male", "condition": 1}, {"rt": 987, "trial_type": "single-stim", "name": "Mary", "stimulus": "<p class='center-content'>Is this a smile?</p><p class='center-content'><img src='img/Mary_Dominance.jpg' height='410' width='730'></img></p>", "expr": "dominance", "time_elapsed": 74829, "internal_node_id": "0.0-1.0-61.0", "key_press": 81, "trial_index": 62, "gend": "female", "condition": 1}, {"rt": 1195, "trial_type": "single-stim", "name": "Dmonte", "stimulus": "<p class='center-content'>Is this a smile?</p><p class='center-content'><img src='img/Dmonte_Disgust.jpg' height='410' width='730'></img></p>", "expr": "disgust", "time_elapsed": 76029, "internal_node_id": "0.0-1.0-62.0", "key_press": 80, "trial_index": 63, "gend": "male", "condition": 1}, {"rt": 811, "trial_type": "single-stim", "name": "Ashley", "stimulus": "<p class='center-content'>Is this a smile?</p><p class='center-content'><img src='img/Ashley_Reward.jpg' height='410' width='730'></img></p>", "expr": "reward", "time_elapsed": 76845, "internal_node_id": "0.0-1.0-63.0", "key_press": 81, "trial_index": 64, "gend": "female", "condition": 1}, {"rt": 1371, "trial_type": "single-stim", "name": "Naomi", "stimulus": "<p class='center-content'>Is this a smile?</p><p class='center-content'><img src='img/Naomi_DIsgust.jpg' height='410' width='730'></img></p>", "expr": "disgust", "time_elapsed": 78221, "internal_node_id": "0.0-1.0-64.0", "key_press": 80, "trial_index": 65, "gend": "female", "condition": 1}, {"rt": 1339, "trial_type": "single-stim", "name": "Maurice", "stimulus": "<p class='center-content'>Is this a smile?</p><p class='center-content'><img src='img/Maurice_Dominance.jpg' height='410' width='730'></img></p>", "expr": "dominance", "time_elapsed": 79565, "internal_node_id": "0.0-1.0-65.0", "key_press": 81, "trial_index": 66, "gend": "male", "condition": 1}, {"rt": 644, "trial_type": "single-stim", "name": "Jourdan", "stimulus": "<p class='center-content'>Is this a smile?</p><p class='center-content'><img src='img/Jourdan_Affiliation.jpg' height='410' width='730'></img></p>", "expr": "affiliation", "time_elapsed": 80213, "internal_node_id": "0.0-1.0-66.0", "key_press": 81, "trial_index": 67, "gend": "male", "condition": 1}, {"rt": 643, "trial_type": "single-stim", "name": "KJ", "stimulus": "<p class='center-content'>Is this a smile?</p><p class='center-content'><img src='img/KJ_Dominance.jpg' height='410' width='730'></img></p>", "expr": "dominance", "time_elapsed": 80861, "internal_node_id": "0.0-1.0-67.0", "key_press": 81, "trial_index": 68, "gend": "female", "condition": 1}, {"rt": 750, "trial_type": "single-stim", "name": "Andrew", "stimulus": "<p class='center-content'>Is this a smile?</p><p class='center-content'><img src='img/Andrew_Disgust.jpg' height='410' width='730'></img></p>", "expr": "disgust", "time_elapsed": 81621, "internal_node_id": "0.0-1.0-68.0", "key_press": 80, "trial_index": 69, "gend": "male", "condition": 1}, {"rt": 749, "trial_type": "single-stim", "name": "Maurice", "stimulus": "<p class='center-content'>Is this a smile?</p><p class='center-content'><img src='img/Maurice_Reward.jpg' height='410' width='730'></img></p>", "expr": "reward", "time_elapsed": 82375, "internal_node_id": "0.0-1.0-69.0", "key_press": 81, "trial_index": 70, "gend": "male", "condition": 1}, {"rt": 690, "trial_type": "single-stim", "name": "Lulu", "stimulus": "<p class='center-content'>Is this a smile?</p><p class='center-content'><img src='img/Lulu_Reward.jpg' height='410' width='730'></img></p>", "expr": "reward", "time_elapsed": 83069, "internal_node_id": "0.0-1.0-70.0", "key_press": 81, "trial_index": 71, "gend": "female", "condition": 1}, {"rt": 666, "trial_type": "single-stim", "name": "Joeseph", "stimulus": "<p class='center-content'>Is this a smile?</p><p class='center-content'><img src='img/Joeseph_Reward.jpg' height='410' width='730'></img></p>", "expr": "reward", "time_elapsed": 83739, "internal_node_id": "0.0-1.0-71.0", "key_press": 81, "trial_index": 72, "gend": "male", "condition": 1}, {"rt": 1436, "trial_type": "single-stim", "name": "Joeseph", "stimulus": "<p class='center-content'>Is this a smile?</p><p class='center-content'><img src='img/Joeseph_Dominance.jpg' height='410' width='730'></img></p>", "expr": "dominance", "time_elapsed": 85180, "internal_node_id": "0.0-1.0-72.0", "key_press": 81, "trial_index": 73, "gend": "male", "condition": 1}, {"rt": 1139, "trial_type": "single-stim", "name": "Anthony", "stimulus": "<p class='center-content'>Is this a smile?</p><p class='center-content'><img src='img/Anthony.jpg' height='410' width='730'></img></p>", "expr": "neutral", "time_elapsed": 86323, "internal_node_id": "0.0-1.0-73.0", "key_press": 80, "trial_index": 74, "gend": "male", "condition": 1}, {"rt": 748, "trial_type": "single-stim", "name": "Anthony", "stimulus": "<p class='center-content'>Is this a smile?</p><p class='center-content'><img src='img/Anthony_Reward.jpg' height='410' width='730'></img></p>", "expr": "reward", "time_elapsed": 87074, "internal_node_id": "0.0-1.0-74.0", "key_press": 81, "trial_index": 75, "gend": "male", "condition": 1}, {"rt": 7017, "trial_type": "survey-multi-choice", "responses": "{\"Q0\":\"Male\",\"Q1\":\"White/Caucasian/European American\",\"Q2\":\"Right\"}", "time_elapsed": 94106, "internal_node_id": "0.0-2.0", "trial_index": 76}, {"rt": 4778, "trial_type": "survey-text", "responses": "{\"Q0\":\"No.\"}", "time_elapsed": 99891, "internal_node_id": "0.0-3.0", "trial_index": 77}, {"rt": 3359, "trial_type": "text", "time_elapsed": 104252, "internal_node_id": "0.0-4.0", "key_press": 13, "trial_index": 78}]}, "AcceptTime": "2017-12-05T16:37:24Z", "HITId": "3MGHRFQY2LP41FX31SQNKT477Z5Y0B", "Assignment": "", "AssignmentStatus": "Approved", "SubmitTime": "2017-12-05T16:48:49Z"}