{"ApprovalTime": "2017-12-05T18:00:18Z", "AutoApprovalTime": "2017-12-05T17:59:26Z", "AssignmentId": "3SPJ0334213EQ5WID35URIFSBUAYJD", "WorkerId": "anon42", "answers": {"data": [{"rt": 57500, "trial_type": "text", "time_elapsed": 57503, "internal_node_id": "0.0-0.0", "key_press": 80, "trial_index": 0}, {"rt": 2715, "trial_type": "single-stim", "name": "Andrew", "stimulus": "<p class='center-content'>Is this a smile?</p><p class='center-content'><img src='img/Andrew_Reward.jpg' height='410' width='730'></img></p>", "expr": "reward", "time_elapsed": 62221, "internal_node_id": "0.0-1.0-0.0", "key_press": 81, "trial_index": 1, "gend": "male", "condition": 1}, {"rt": 894, "trial_type": "single-stim", "name": "Lulu", "stimulus": "<p class='center-content'>Is this a smile?</p><p class='center-content'><img src='img/Lulu_Dominance.jpg' height='410' width='730'></img></p>", "expr": "dominance", "time_elapsed": 63116, "internal_node_id": "0.0-1.0-1.0", "key_press": 81, "trial_index": 2, "gend": "female", "condition": 1}, {"rt": 1070, "trial_type": "single-stim", "name": "Andrew", "stimulus": "<p class='center-content'>Is this a smile?</p><p class='center-content'><img src='img/Andrew_Dominance.jpg' height='410' width='730'></img></p>", "expr": "dominance", "time_elapsed": 64188, "internal_node_id": "0.0-1.0-2.0", "key_press": 81, "trial_index": 3, "gend": "male", "condition": 1}, {"rt": 1231, "trial_type": "single-stim", "name": "Ashley", "stimulus": "<p class='center-content'>Is this a smile?</p><p class='center-content'><img src='img/Ashley_Dominance.jpg' height='410' width='730'></img></p>", "expr": "dominance", "time_elapsed": 65420, "internal_node_id": "0.0-1.0-3.0", "key_press": 80, "trial_index": 4, "gend": "female", "condition": 1}, {"rt": 733, "trial_type": "single-stim", "name": "Joeseph", "stimulus": "<p class='center-content'>Is this a smile?</p><p class='center-content'><img src='img/Joeseph.jpg' height='410' width='730'></img></p>", "expr": "neutral", "time_elapsed": 66156, "internal_node_id": "0.0-1.0-4.0", "key_press": 80, "trial_index": 5, "gend": "male", "condition": 1}, {"rt": 639, "trial_type": "single-stim", "name": "Maurice", "stimulus": "<p class='center-content'>Is this a smile?</p><p class='center-content'><img src='img/Maurice_Reward.jpg' height='410' width='730'></img></p>", "expr": "reward", "time_elapsed": 66797, "internal_node_id": "0.0-1.0-5.0", "key_press": 81, "trial_index": 6, "gend": "male", "condition": 1}, {"rt": 590, "trial_type": "single-stim", "name": "Jourdan", "stimulus": "<p class='center-content'>Is this a smile?</p><p class='center-content'><img src='img/Jourdan_Affiliation.jpg' height='410' width='730'></img></p>", "expr": "affiliation", "time_elapsed": 67389, "internal_node_id": "0.0-1.0-6.0", "key_press": 81, "trial_index": 7, "gend": "male", "condition": 1}, {"rt": 720, "trial_type": "single-stim", "name": "Mary", "stimulus": "<p class='center-content'>Is this a smile?</p><p class='center-content'><img src='img/Mary_Disgust.jpg' height='410' width='730'></img></p>", "expr": "disgust", "time_elapsed": 68110, "internal_node_id": "0.0-1.0-7.0", "key_press": 80, "trial_index": 8, "gend": "female", "condition": 1}, {"rt": 701, "trial_type": "single-stim", "name": "Naomi", "stimulus": "<p class='center-content'>Is this a smile?</p><p class='center-content'><img src='img/Naomi_Reward.jpg' height='410' width='730'></img></p>", "expr": "reward", "time_elapsed": 68813, "internal_node_id": "0.0-1.0-8.0", "key_press": 81, "trial_index": 9, "gend": "female", "condition": 1}, {"rt": 861, "trial_type": "single-stim", "name": "Ashley", "stimulus": "<p class='center-content'>Is this a smile?</p><p class='center-content'><img src='img/Ashley_Disgust.jpg' height='410' width='730'></img></p>", "expr": "disgust", "time_elapsed": 69677, "internal_node_id": "0.0-1.0-9.0", "key_press": 80, "trial_index": 10, "gend": "female", "condition": 1}, {"rt": 878, "trial_type": "single-stim", "name": "Maurice", "stimulus": "<p class='center-content'>Is this a smile?</p><p class='center-content'><img src='img/Maurice_Disgust.jpg' height='410' width='730'></img></p>", "expr": "disgust", "time_elapsed": 70557, "internal_node_id": "0.0-1.0-10.0", "key_press": 80, "trial_index": 11, "gend": "male", "condition": 1}, {"rt": 910, "trial_type": "single-stim", "name": "Mary", "stimulus": "<p class='center-content'>Is this a smile?</p><p class='center-content'><img src='img/Mary_Reward.jpg' height='410' width='730'></img></p>", "expr": "reward", "time_elapsed": 71469, "internal_node_id": "0.0-1.0-11.0", "key_press": 81, "trial_index": 12, "gend": "female", "condition": 1}, {"rt": 798, "trial_type": "single-stim", "name": "Naomi", "stimulus": "<p class='center-content'>Is this a smile?</p><p class='center-content'><img src='img/Naomi.jpg' height='410' width='730'></img></p>", "expr": "neutral", "time_elapsed": 72269, "internal_node_id": "0.0-1.0-12.0", "key_press": 81, "trial_index": 13, "gend": "female", "condition": 1}, {"rt": 702, "trial_type": "single-stim", "name": "Mary", "stimulus": "<p class='center-content'>Is this a smile?</p><p class='center-content'><img src='img/Mary.jpg' height='410' width='730'></img></p>", "expr": "neutral", "time_elapsed": 72973, "internal_node_id": "0.0-1.0-13.0", "key_press": 80, "trial_index": 14, "gend": "female", "condition": 1}, {"rt": 622, "trial_type": "single-stim", "name": "Ashley", "stimulus": "<p class='center-content'>Is this a smile?</p><p class='center-content'><img src='img/Ashley_Reward.jpg' height='410' width='730'></img></p>", "expr": "reward", "time_elapsed": 73596, "internal_node_id": "0.0-1.0-14.0", "key_press": 81, "trial_index": 15, "gend": "female", "condition": 1}, {"rt": 655, "trial_type": "single-stim", "name": "Marcus", "stimulus": "<p class='center-content'>Is this a smile?</p><p class='center-content'><img src='img/Marcus.jpg' height='410' width='730'></img></p>", "expr": "neutral", "time_elapsed": 74252, "internal_node_id": "0.0-1.0-15.0", "key_press": 80, "trial_index": 16, "gend": "male", "condition": 1}, {"rt": 1391, "trial_type": "single-stim", "name": "Anthony", "stimulus": "<p class='center-content'>Is this a smile?</p><p class='center-content'><img src='img/Anthony_Affiliation.jpg' height='410' width='730'></img></p>", "expr": "affiliation", "time_elapsed": 75645, "internal_node_id": "0.0-1.0-16.0", "key_press": 81, "trial_index": 17, "gend": "male", "condition": 1}, {"rt": 606, "trial_type": "single-stim", "name": "KJ", "stimulus": "<p class='center-content'>Is this a smile?</p><p class='center-content'><img src='img/KJ_Dominance.jpg' height='410' width='730'></img></p>", "expr": "dominance", "time_elapsed": 76252, "internal_node_id": "0.0-1.0-17.0", "key_press": 81, "trial_index": 18, "gend": "female", "condition": 1}, {"rt": 958, "trial_type": "single-stim", "name": "Lulu", "stimulus": "<p class='center-content'>Is this a smile?</p><p class='center-content'><img src='img/Lulu.jpg' height='410' width='730'></img></p>", "expr": "neutral", "time_elapsed": 77213, "internal_node_id": "0.0-1.0-18.0", "key_press": 80, "trial_index": 19, "gend": "female", "condition": 1}, {"rt": 1151, "trial_type": "single-stim", "name": "KJ", "stimulus": "<p class='center-content'>Is this a smile?</p><p class='center-content'><img src='img/KJ.jpg' height='410' width='730'></img></p>", "expr": "neutral", "time_elapsed": 78365, "internal_node_id": "0.0-1.0-19.0", "key_press": 80, "trial_index": 20, "gend": "female", "condition": 1}, {"rt": 877, "trial_type": "single-stim", "name": "Naomi", "stimulus": "<p class='center-content'>Is this a smile?</p><p class='center-content'><img src='img/Naomi_Dominance.jpg' height='410' width='730'></img></p>", "expr": "dominance", "time_elapsed": 79245, "internal_node_id": "0.0-1.0-20.0", "key_press": 81, "trial_index": 21, "gend": "female", "condition": 1}, {"rt": 1102, "trial_type": "single-stim", "name": "Anthony", "stimulus": "<p class='center-content'>Is this a smile?</p><p class='center-content'><img src='img/Anthony_Disgust.jpg' height='410' width='730'></img></p>", "expr": "disgust", "time_elapsed": 80349, "internal_node_id": "0.0-1.0-21.0", "key_press": 80, "trial_index": 22, "gend": "male", "condition": 1}, {"rt": 2510, "trial_type": "single-stim", "name": "Andrew", "stimulus": "<p class='center-content'>Is this a smile?</p><p class='center-content'><img src='img/Andrew.jpg' height='410' width='730'></img></p>", "expr": "neutral", "time_elapsed": 82861, "internal_node_id": "0.0-1.0-22.0", "key_press": 80, "trial_index": 23, "gend": "male", "condition": 1}, {"rt": 2462, "trial_type": "single-stim", "name": "Mary", "stimulus": "<p class='center-content'>Is this a smile?</p><p class='center-content'><img src='img/Mary_Affiliation.jpg' height='410' width='730'></img></p>", "expr": "affiliation", "time_elapsed": 85325, "internal_node_id": "0.0-1.0-23.0", "key_press": 81, "trial_index": 24, "gend": "female", "condition": 1}, {"rt": 1310, "trial_type": "single-stim", "name": "Zach", "stimulus": "<p class='center-content'>Is this a smile?</p><p class='center-content'><img src='img/Zach_Affiliation.jpg' height='410' width='730'></img></p>", "expr": "affiliation", "time_elapsed": 86636, "internal_node_id": "0.0-1.0-24.0", "key_press": 81, "trial_index": 25, "gend": "male", "condition": 1}, {"rt": 719, "trial_type": "single-stim", "name": "Andrew", "stimulus": "<p class='center-content'>Is this a smile?</p><p class='center-content'><img src='img/Andrew_Disgust.jpg' height='410' width='730'></img></p>", "expr": "disgust", "time_elapsed": 87357, "internal_node_id": "0.0-1.0-25.0", "key_press": 80, "trial_index": 26, "gend": "male", "condition": 1}, {"rt": 670, "trial_type": "single-stim", "name": "Dmonte", "stimulus": "<p class='center-content'>Is this a smile?</p><p class='center-content'><img src='img/Dmonte_Affiliation.jpg' height='410' width='730'></img></p>", "expr": "affiliation", "time_elapsed": 88029, "internal_node_id": "0.0-1.0-26.0", "key_press": 81, "trial_index": 27, "gend": "male", "condition": 1}, {"rt": 719, "trial_type": "single-stim", "name": "Zach", "stimulus": "<p class='center-content'>Is this a smile?</p><p class='center-content'><img src='img/Zach_Dominance.jpg' height='410' width='730'></img></p>", "expr": "dominance", "time_elapsed": 88749, "internal_node_id": "0.0-1.0-27.0", "key_press": 81, "trial_index": 28, "gend": "male", "condition": 1}, {"rt": 591, "trial_type": "single-stim", "name": "Jessica", "stimulus": "<p class='center-content'>Is this a smile?</p><p class='center-content'><img src='img/Jessica_Affiliation.jpg' height='410' width='730'></img></p>", "expr": "affiliation", "time_elapsed": 89341, "internal_node_id": "0.0-1.0-28.0", "key_press": 81, "trial_index": 29, "gend": "female", "condition": 1}, {"rt": 782, "trial_type": "single-stim", "name": "Dmonte", "stimulus": "<p class='center-content'>Is this a smile?</p><p class='center-content'><img src='img/Dmonte_Dominance.jpg' height='410' width='730'></img></p>", "expr": "dominance", "time_elapsed": 90124, "internal_node_id": "0.0-1.0-29.0", "key_press": 80, "trial_index": 30, "gend": "male", "condition": 1}, {"rt": 991, "trial_type": "single-stim", "name": "Lulu", "stimulus": "<p class='center-content'>Is this a smile?</p><p class='center-content'><img src='img/Lulu_Disgust.jpg' height='410' width='730'></img></p>", "expr": "disgust", "time_elapsed": 91117, "internal_node_id": "0.0-1.0-30.0", "key_press": 80, "trial_index": 31, "gend": "female", "condition": 1}, {"rt": 766, "trial_type": "single-stim", "name": "Anna", "stimulus": "<p class='center-content'>Is this a smile?</p><p class='center-content'><img src='img/Anna_Dominance.jpg' height='410' width='730'></img></p>", "expr": "dominance", "time_elapsed": 91884, "internal_node_id": "0.0-1.0-31.0", "key_press": 81, "trial_index": 32, "gend": "female", "condition": 1}, {"rt": 750, "trial_type": "single-stim", "name": "Anna", "stimulus": "<p class='center-content'>Is this a smile?</p><p class='center-content'><img src='img/Anna_Reward.jpg' height='410' width='730'></img></p>", "expr": "reward", "time_elapsed": 92637, "internal_node_id": "0.0-1.0-32.0", "key_press": 81, "trial_index": 33, "gend": "female", "condition": 1}, {"rt": 1022, "trial_type": "single-stim", "name": "KJ", "stimulus": "<p class='center-content'>Is this a smile?</p><p class='center-content'><img src='img/KJ_Disgust.jpg' height='410' width='730'></img></p>", "expr": "disgust", "time_elapsed": 93660, "internal_node_id": "0.0-1.0-33.0", "key_press": 80, "trial_index": 34, "gend": "female", "condition": 1}, {"rt": 703, "trial_type": "single-stim", "name": "Anthony", "stimulus": "<p class='center-content'>Is this a smile?</p><p class='center-content'><img src='img/Anthony_Reward.jpg' height='410' width='730'></img></p>", "expr": "reward", "time_elapsed": 94364, "internal_node_id": "0.0-1.0-34.0", "key_press": 81, "trial_index": 35, "gend": "male", "condition": 1}, {"rt": 751, "trial_type": "single-stim", "name": "Anna", "stimulus": "<p class='center-content'>Is this a smile?</p><p class='center-content'><img src='img/Anna_Affiliation.jpg' height='410' width='730'></img></p>", "expr": "affiliation", "time_elapsed": 95117, "internal_node_id": "0.0-1.0-35.0", "key_press": 81, "trial_index": 36, "gend": "female", "condition": 1}, {"rt": 685, "trial_type": "single-stim", "name": "Jessica", "stimulus": "<p class='center-content'>Is this a smile?</p><p class='center-content'><img src='img/Jessica_Disgust.jpg' height='410' width='730'></img></p>", "expr": "disgust", "time_elapsed": 95804, "internal_node_id": "0.0-1.0-36.0", "key_press": 80, "trial_index": 37, "gend": "female", "condition": 1}, {"rt": 655, "trial_type": "single-stim", "name": "Jourdan", "stimulus": "<p class='center-content'>Is this a smile?</p><p class='center-content'><img src='img/Jourdan_Disgust.jpg' height='410' width='730'></img></p>", "expr": "disgust", "time_elapsed": 96461, "internal_node_id": "0.0-1.0-37.0", "key_press": 80, "trial_index": 38, "gend": "male", "condition": 1}, {"rt": 590, "trial_type": "single-stim", "name": "Zach", "stimulus": "<p class='center-content'>Is this a smile?</p><p class='center-content'><img src='img/Zach_Disgust.jpg' height='410' width='730'></img></p>", "expr": "disgust", "time_elapsed": 97052, "internal_node_id": "0.0-1.0-38.0", "key_press": 80, "trial_index": 39, "gend": "male", "condition": 1}, {"rt": 862, "trial_type": "single-stim", "name": "Lulu", "stimulus": "<p class='center-content'>Is this a smile?</p><p class='center-content'><img src='img/Lulu_Reward.jpg' height='410' width='730'></img></p>", "expr": "reward", "time_elapsed": 97916, "internal_node_id": "0.0-1.0-39.0", "key_press": 81, "trial_index": 40, "gend": "female", "condition": 1}, {"rt": 848, "trial_type": "single-stim", "name": "Marcus", "stimulus": "<p class='center-content'>Is this a smile?</p><p class='center-content'><img src='img/Marcus_Dominance.jpg' height='410' width='730'></img></p>", "expr": "dominance", "time_elapsed": 98766, "internal_node_id": "0.0-1.0-40.0", "key_press": 80, "trial_index": 41, "gend": "male", "condition": 1}, {"rt": 925, "trial_type": "single-stim", "name": "Joeseph", "stimulus": "<p class='center-content'>Is this a smile?</p><p class='center-content'><img src='img/Joeseph_Disgust.jpg' height='410' width='730'></img></p>", "expr": "disgust", "time_elapsed": 99693, "internal_node_id": "0.0-1.0-41.0", "key_press": 80, "trial_index": 42, "gend": "male", "condition": 1}, {"rt": 1278, "trial_type": "single-stim", "name": "Joeseph", "stimulus": "<p class='center-content'>Is this a smile?</p><p class='center-content'><img src='img/Joeseph_Dominance.jpg' height='410' width='730'></img></p>", "expr": "dominance", "time_elapsed": 100972, "internal_node_id": "0.0-1.0-42.0", "key_press": 81, "trial_index": 43, "gend": "male", "condition": 1}, {"rt": 1230, "trial_type": "single-stim", "name": "Zach", "stimulus": "<p class='center-content'>Is this a smile?</p><p class='center-content'><img src='img/Zach.jpg' height='410' width='730'></img></p>", "expr": "neutral", "time_elapsed": 102204, "internal_node_id": "0.0-1.0-43.0", "key_press": 80, "trial_index": 44, "gend": "male", "condition": 1}, {"rt": 1167, "trial_type": "single-stim", "name": "Maurice", "stimulus": "<p class='center-content'>Is this a smile?</p><p class='center-content'><img src='img/Maurice_Affiliation.jpg' height='410' width='730'></img></p>", "expr": "affiliation", "time_elapsed": 103373, "internal_node_id": "0.0-1.0-44.0", "key_press": 81, "trial_index": 45, "gend": "male", "condition": 1}, {"rt": 685, "trial_type": "single-stim", "name": "Jourdan", "stimulus": "<p class='center-content'>Is this a smile?</p><p class='center-content'><img src='img/Jourdan_Reward.jpg' height='410' width='730'></img></p>", "expr": "reward", "time_elapsed": 104060, "internal_node_id": "0.0-1.0-45.0", "key_press": 81, "trial_index": 46, "gend": "male", "condition": 1}, {"rt": 1231, "trial_type": "single-stim", "name": "Joeseph", "stimulus": "<p class='center-content'>Is this a smile?</p><p class='center-content'><img src='img/Joeseph_Affiliation.jpg' height='410' width='730'></img></p>", "expr": "affiliation", "time_elapsed": 105293, "internal_node_id": "0.0-1.0-46.0", "key_press": 81, "trial_index": 47, "gend": "male", "condition": 1}, {"rt": 958, "trial_type": "single-stim", "name": "Jessica", "stimulus": "<p class='center-content'>Is this a smile?</p><p class='center-content'><img src='img/Jessica.jpg' height='410' width='730'></img></p>", "expr": "neutral", "time_elapsed": 106253, "internal_node_id": "0.0-1.0-47.0", "key_press": 80, "trial_index": 48, "gend": "female", "condition": 1}, {"rt": 702, "trial_type": "single-stim", "name": "KJ", "stimulus": "<p class='center-content'>Is this a smile?</p><p class='center-content'><img src='img/KJ_Reward.jpg' height='410' width='730'></img></p>", "expr": "reward", "time_elapsed": 106957, "internal_node_id": "0.0-1.0-48.0", "key_press": 81, "trial_index": 49, "gend": "female", "condition": 1}, {"rt": 862, "trial_type": "single-stim", "name": "Jourdan", "stimulus": "<p class='center-content'>Is this a smile?</p><p class='center-content'><img src='img/Jourdan.jpg' height='410' width='730'></img></p>", "expr": "neutral", "time_elapsed": 107821, "internal_node_id": "0.0-1.0-49.0", "key_press": 80, "trial_index": 50, "gend": "male", "condition": 1}, {"rt": 670, "trial_type": "single-stim", "name": "KJ", "stimulus": "<p class='center-content'>Is this a smile?</p><p class='center-content'><img src='img/KJ_Affiliation.jpg' height='410' width='730'></img></p>", "expr": "affiliation", "time_elapsed": 108492, "internal_node_id": "0.0-1.0-50.0", "key_press": 81, "trial_index": 51, "gend": "female", "condition": 1}, {"rt": 672, "trial_type": "single-stim", "name": "Zach", "stimulus": "<p class='center-content'>Is this a smile?</p><p class='center-content'><img src='img/Zach_Reward.jpg' height='410' width='730'></img></p>", "expr": "reward", "time_elapsed": 109166, "internal_node_id": "0.0-1.0-51.0", "key_press": 81, "trial_index": 52, "gend": "male", "condition": 1}, {"rt": 654, "trial_type": "single-stim", "name": "Anthony", "stimulus": "<p class='center-content'>Is this a smile?</p><p class='center-content'><img src='img/Anthony_Dominance.jpg' height='410' width='730'></img></p>", "expr": "dominance", "time_elapsed": 109821, "internal_node_id": "0.0-1.0-52.0", "key_press": 81, "trial_index": 53, "gend": "male", "condition": 1}, {"rt": 814, "trial_type": "single-stim", "name": "Ashley", "stimulus": "<p class='center-content'>Is this a smile?</p><p class='center-content'><img src='img/Ashley_Affiliation.jpg' height='410' width='730'></img></p>", "expr": "affiliation", "time_elapsed": 110636, "internal_node_id": "0.0-1.0-53.0", "key_press": 81, "trial_index": 54, "gend": "female", "condition": 1}, {"rt": 878, "trial_type": "single-stim", "name": "Marcus", "stimulus": "<p class='center-content'>Is this a smile?</p><p class='center-content'><img src='img/Marcus_Reward.jpg' height='410' width='730'></img></p>", "expr": "reward", "time_elapsed": 111516, "internal_node_id": "0.0-1.0-54.0", "key_press": 81, "trial_index": 55, "gend": "male", "condition": 1}, {"rt": 911, "trial_type": "single-stim", "name": "Mary", "stimulus": "<p class='center-content'>Is this a smile?</p><p class='center-content'><img src='img/Mary_Dominance.jpg' height='410' width='730'></img></p>", "expr": "dominance", "time_elapsed": 112428, "internal_node_id": "0.0-1.0-55.0", "key_press": 81, "trial_index": 56, "gend": "female", "condition": 1}, {"rt": 1119, "trial_type": "single-stim", "name": "Anthony", "stimulus": "<p class='center-content'>Is this a smile?</p><p class='center-content'><img src='img/Anthony.jpg' height='410' width='730'></img></p>", "expr": "neutral", "time_elapsed": 113548, "internal_node_id": "0.0-1.0-56.0", "key_press": 80, "trial_index": 57, "gend": "male", "condition": 1}, {"rt": 734, "trial_type": "single-stim", "name": "Naomi", "stimulus": "<p class='center-content'>Is this a smile?</p><p class='center-content'><img src='img/Naomi_Affiliation.jpg' height='410' width='730'></img></p>", "expr": "affiliation", "time_elapsed": 114285, "internal_node_id": "0.0-1.0-57.0", "key_press": 81, "trial_index": 58, "gend": "female", "condition": 1}, {"rt": 958, "trial_type": "single-stim", "name": "Anna", "stimulus": "<p class='center-content'>Is this a smile?</p><p class='center-content'><img src='img/Anna.jpg' height='410' width='730'></img></p>", "expr": "neutral", "time_elapsed": 115244, "internal_node_id": "0.0-1.0-58.0", "key_press": 80, "trial_index": 59, "gend": "female", "condition": 1}, {"rt": 687, "trial_type": "single-stim", "name": "Jourdan", "stimulus": "<p class='center-content'>Is this a smile?</p><p class='center-content'><img src='img/Jourdan_Dominance.jpg' height='410' width='730'></img></p>", "expr": "dominance", "time_elapsed": 115932, "internal_node_id": "0.0-1.0-59.0", "key_press": 81, "trial_index": 60, "gend": "male", "condition": 1}, {"rt": 751, "trial_type": "single-stim", "name": "Dmonte", "stimulus": "<p class='center-content'>Is this a smile?</p><p class='center-content'><img src='img/Dmonte.jpg' height='410' width='730'></img></p>", "expr": "neutral", "time_elapsed": 116685, "internal_node_id": "0.0-1.0-60.0", "key_press": 80, "trial_index": 61, "gend": "male", "condition": 1}, {"rt": 1358, "trial_type": "single-stim", "name": "Naomi", "stimulus": "<p class='center-content'>Is this a smile?</p><p class='center-content'><img src='img/Naomi_DIsgust.jpg' height='410' width='730'></img></p>", "expr": "disgust", "time_elapsed": 118044, "internal_node_id": "0.0-1.0-61.0", "key_press": 80, "trial_index": 62, "gend": "female", "condition": 1}, {"rt": 1168, "trial_type": "single-stim", "name": "Dmonte", "stimulus": "<p class='center-content'>Is this a smile?</p><p class='center-content'><img src='img/Dmonte_Reward.jpg' height='410' width='730'></img></p>", "expr": "reward", "time_elapsed": 119214, "internal_node_id": "0.0-1.0-62.0", "key_press": 81, "trial_index": 63, "gend": "male", "condition": 1}, {"rt": 685, "trial_type": "single-stim", "name": "Jessica", "stimulus": "<p class='center-content'>Is this a smile?</p><p class='center-content'><img src='img/Jessica_Dominance.jpg' height='410' width='730'></img></p>", "expr": "dominance", "time_elapsed": 119901, "internal_node_id": "0.0-1.0-63.0", "key_press": 81, "trial_index": 64, "gend": "female", "condition": 1}, {"rt": 1214, "trial_type": "single-stim", "name": "Maurice", "stimulus": "<p class='center-content'>Is this a smile?</p><p class='center-content'><img src='img/Maurice_Dominance.jpg' height='410' width='730'></img></p>", "expr": "dominance", "time_elapsed": 121117, "internal_node_id": "0.0-1.0-64.0", "key_press": 81, "trial_index": 65, "gend": "male", "condition": 1}, {"rt": 798, "trial_type": "single-stim", "name": "Lulu", "stimulus": "<p class='center-content'>Is this a smile?</p><p class='center-content'><img src='img/Lulu_Affiliation.jpg' height='410' width='730'></img></p>", "expr": "affiliation", "time_elapsed": 121916, "internal_node_id": "0.0-1.0-65.0", "key_press": 81, "trial_index": 66, "gend": "female", "condition": 1}, {"rt": 958, "trial_type": "single-stim", "name": "Ashley", "stimulus": "<p class='center-content'>Is this a smile?</p><p class='center-content'><img src='img/Ashley.jpg' height='410' width='730'></img></p>", "expr": "neutral", "time_elapsed": 122876, "internal_node_id": "0.0-1.0-66.0", "key_press": 80, "trial_index": 67, "gend": "female", "condition": 1}, {"rt": 895, "trial_type": "single-stim", "name": "Jessica", "stimulus": "<p class='center-content'>Is this a smile?</p><p class='center-content'><img src='img/Jessica_Reward.jpg' height='410' width='730'></img></p>", "expr": "reward", "time_elapsed": 123772, "internal_node_id": "0.0-1.0-67.0", "key_press": 81, "trial_index": 68, "gend": "female", "condition": 1}, {"rt": 927, "trial_type": "single-stim", "name": "Marcus", "stimulus": "<p class='center-content'>Is this a smile?</p><p class='center-content'><img src='img/Marcus_Affiliation.jpg' height='410' width='730'></img></p>", "expr": "affiliation", "time_elapsed": 124700, "internal_node_id": "0.0-1.0-68.0", "key_press": 80, "trial_index": 69, "gend": "male", "condition": 1}, {"rt": 926, "trial_type": "single-stim", "name": "Joeseph", "stimulus": "<p class='center-content'>Is this a smile?</p><p class='center-content'><img src='img/Joeseph_Reward.jpg' height='410' width='730'></img></p>", "expr": "reward", "time_elapsed": 125628, "internal_node_id": "0.0-1.0-69.0", "key_press": 81, "trial_index": 70, "gend": "male", "condition": 1}, {"rt": 878, "trial_type": "single-stim", "name": "Marcus", "stimulus": "<p class='center-content'>Is this a smile?</p><p class='center-content'><img src='img/Marcus_Disgust.jpg' height='410' width='730'></img></p>", "expr": "disgust", "time_elapsed": 126509, "internal_node_id": "0.0-1.0-70.0", "key_press": 80, "trial_index": 71, "gend": "male", "condition": 1}, {"rt": 1118, "trial_type": "single-stim", "name": "Dmonte", "stimulus": "<p class='center-content'>Is this a smile?</p><p class='center-content'><img src='img/Dmonte_Disgust.jpg' height='410' width='730'></img></p>", "expr": "disgust", "time_elapsed": 127629, "internal_node_id": "0.0-1.0-71.0", "key_press": 80, "trial_index": 72, "gend": "male", "condition": 1}, {"rt": 830, "trial_type": "single-stim", "name": "Andrew", "stimulus": "<p class='center-content'>Is this a smile?</p><p class='center-content'><img src='img/Andrew_Affiliation.jpg' height='410' width='730'></img></p>", "expr": "affiliation", "time_elapsed": 128460, "internal_node_id": "0.0-1.0-72.0", "key_press": 81, "trial_index": 73, "gend": "male", "condition": 1}, {"rt": 991, "trial_type": "single-stim", "name": "Anna", "stimulus": "<p class='center-content'>Is this a smile?</p><p class='center-content'><img src='img/Anna_Disgust.jpg' height='410' width='730'></img></p>", "expr": "disgust", "time_elapsed": 129453, "internal_node_id": "0.0-1.0-73.0", "key_press": 80, "trial_index": 74, "gend": "female", "condition": 1}, {"rt": 845, "trial_type": "single-stim", "name": "Maurice", "stimulus": "<p class='center-content'>Is this a smile?</p><p class='center-content'><img src='img/Maurice.jpg' height='410' width='730'></img></p>", "expr": "neutral", "time_elapsed": 130301, "internal_node_id": "0.0-1.0-74.0", "key_press": 80, "trial_index": 75, "gend": "male", "condition": 1}, {"rt": 42656, "trial_type": "survey-multi-choice", "responses": "{\"Q0\":\"Female\",\"Q1\":\"White/Caucasian/European American\",\"Q2\":\"Right\"}", "time_elapsed": 172970, "internal_node_id": "0.0-2.0", "trial_index": 76}, {"rt": 3553, "trial_type": "survey-text", "responses": "{\"Q0\":\"No\"}", "time_elapsed": 177527, "internal_node_id": "0.0-3.0", "trial_index": 77}, {"rt": 1865, "trial_type": "text", "time_elapsed": 180397, "internal_node_id": "0.0-4.0", "key_press": 83, "trial_index": 78}]}, "AcceptTime": "2017-12-05T17:50:07Z", "HITId": "31HLTCK4BLVK8PDJAJS6YMNTWZYVG8", "Assignment": "", "AssignmentStatus": "Approved", "SubmitTime": "2017-12-05T17:54:26Z"}