{"ApprovalTime": "2017-12-05T23:13:18Z", "AutoApprovalTime": "2017-12-05T23:12:41Z", "AssignmentId": "3WMINLGALB3QM9S9N5AS1SKQIPAACP", "WorkerId": "anon50", "answers": {"data": [{"rt": 73299, "trial_type": "text", "time_elapsed": 73301, "internal_node_id": "0.0-0.0", "key_press": 80, "trial_index": 0}, {"rt": 855, "trial_type": "single-stim", "name": "Andrew", "stimulus": "<p class='center-content'>Is this a smile?</p><p class='center-content'><img src='img/Andrew_Reward.jpg' height='410' width='730'></img></p>", "expr": "reward", "time_elapsed": 76171, "internal_node_id": "0.0-1.0-0.0", "key_press": 80, "trial_index": 1, "gend": "male", "condition": 2}, {"rt": 855, "trial_type": "single-stim", "name": "Anthony", "stimulus": "<p class='center-content'>Is this a smile?</p><p class='center-content'><img src='img/Anthony_Dominance.jpg' height='410' width='730'></img></p>", "expr": "dominance", "time_elapsed": 77036, "internal_node_id": "0.0-1.0-1.0", "key_press": 80, "trial_index": 2, "gend": "male", "condition": 2}, {"rt": 2005, "trial_type": "single-stim", "name": "Dmonte", "stimulus": "<p class='center-content'>Is this a smile?</p><p class='center-content'><img src='img/Dmonte_Dominance.jpg' height='410' width='730'></img></p>", "expr": "dominance", "time_elapsed": 79052, "internal_node_id": "0.0-1.0-2.0", "key_press": 80, "trial_index": 3, "gend": "male", "condition": 2}, {"rt": 758, "trial_type": "single-stim", "name": "Jourdan", "stimulus": "<p class='center-content'>Is this a smile?</p><p class='center-content'><img src='img/Jourdan_Dominance.jpg' height='410' width='730'></img></p>", "expr": "dominance", "time_elapsed": 79818, "internal_node_id": "0.0-1.0-3.0", "key_press": 80, "trial_index": 4, "gend": "male", "condition": 2}, {"rt": 690, "trial_type": "single-stim", "name": "Jourdan", "stimulus": "<p class='center-content'>Is this a smile?</p><p class='center-content'><img src='img/Jourdan_Affiliation.jpg' height='410' width='730'></img></p>", "expr": "affiliation", "time_elapsed": 80514, "internal_node_id": "0.0-1.0-4.0", "key_press": 80, "trial_index": 5, "gend": "male", "condition": 2}, {"rt": 1969, "trial_type": "single-stim", "name": "Anthony", "stimulus": "<p class='center-content'>Is this a smile?</p><p class='center-content'><img src='img/Anthony.jpg' height='410' width='730'></img></p>", "expr": "neutral", "time_elapsed": 82490, "internal_node_id": "0.0-1.0-5.0", "key_press": 81, "trial_index": 6, "gend": "male", "condition": 2}, {"rt": 674, "trial_type": "single-stim", "name": "KJ", "stimulus": "<p class='center-content'>Is this a smile?</p><p class='center-content'><img src='img/KJ_Reward.jpg' height='410' width='730'></img></p>", "expr": "reward", "time_elapsed": 83170, "internal_node_id": "0.0-1.0-6.0", "key_press": 80, "trial_index": 7, "gend": "female", "condition": 2}, {"rt": 594, "trial_type": "single-stim", "name": "Anna", "stimulus": "<p class='center-content'>Is this a smile?</p><p class='center-content'><img src='img/Anna_Reward.jpg' height='410' width='730'></img></p>", "expr": "reward", "time_elapsed": 83770, "internal_node_id": "0.0-1.0-7.0", "key_press": 80, "trial_index": 8, "gend": "female", "condition": 2}, {"rt": 778, "trial_type": "single-stim", "name": "Jessica", "stimulus": "<p class='center-content'>Is this a smile?</p><p class='center-content'><img src='img/Jessica_Affiliation.jpg' height='410' width='730'></img></p>", "expr": "affiliation", "time_elapsed": 84554, "internal_node_id": "0.0-1.0-8.0", "key_press": 80, "trial_index": 9, "gend": "female", "condition": 2}, {"rt": 2219, "trial_type": "single-stim", "name": "Jessica", "stimulus": "<p class='center-content'>Is this a smile?</p><p class='center-content'><img src='img/Jessica_Dominance.jpg' height='410' width='730'></img></p>", "expr": "dominance", "time_elapsed": 86778, "internal_node_id": "0.0-1.0-9.0", "key_press": 80, "trial_index": 10, "gend": "female", "condition": 2}, {"rt": 588, "trial_type": "single-stim", "name": "Maurice", "stimulus": "<p class='center-content'>Is this a smile?</p><p class='center-content'><img src='img/Maurice_Reward.jpg' height='410' width='730'></img></p>", "expr": "reward", "time_elapsed": 87370, "internal_node_id": "0.0-1.0-10.0", "key_press": 80, "trial_index": 11, "gend": "male", "condition": 2}, {"rt": 1001, "trial_type": "single-stim", "name": "Naomi", "stimulus": "<p class='center-content'>Is this a smile?</p><p class='center-content'><img src='img/Naomi_Dominance.jpg' height='410' width='730'></img></p>", "expr": "dominance", "time_elapsed": 88378, "internal_node_id": "0.0-1.0-11.0", "key_press": 80, "trial_index": 12, "gend": "female", "condition": 2}, {"rt": 799, "trial_type": "single-stim", "name": "Maurice", "stimulus": "<p class='center-content'>Is this a smile?</p><p class='center-content'><img src='img/Maurice_Disgust.jpg' height='410' width='730'></img></p>", "expr": "disgust", "time_elapsed": 89186, "internal_node_id": "0.0-1.0-12.0", "key_press": 81, "trial_index": 13, "gend": "male", "condition": 2}, {"rt": 1913, "trial_type": "single-stim", "name": "Jessica", "stimulus": "<p class='center-content'>Is this a smile?</p><p class='center-content'><img src='img/Jessica.jpg' height='410' width='730'></img></p>", "expr": "neutral", "time_elapsed": 91106, "internal_node_id": "0.0-1.0-13.0", "key_press": 81, "trial_index": 14, "gend": "female", "condition": 2}, {"rt": 736, "trial_type": "single-stim", "name": "Joeseph", "stimulus": "<p class='center-content'>Is this a smile?</p><p class='center-content'><img src='img/Joeseph_Affiliation.jpg' height='410' width='730'></img></p>", "expr": "affiliation", "time_elapsed": 91849, "internal_node_id": "0.0-1.0-14.0", "key_press": 80, "trial_index": 15, "gend": "male", "condition": 2}, {"rt": 787, "trial_type": "single-stim", "name": "Lulu", "stimulus": "<p class='center-content'>Is this a smile?</p><p class='center-content'><img src='img/Lulu_Affiliation.jpg' height='410' width='730'></img></p>", "expr": "affiliation", "time_elapsed": 92641, "internal_node_id": "0.0-1.0-15.0", "key_press": 80, "trial_index": 16, "gend": "female", "condition": 2}, {"rt": 756, "trial_type": "single-stim", "name": "Naomi", "stimulus": "<p class='center-content'>Is this a smile?</p><p class='center-content'><img src='img/Naomi_Reward.jpg' height='410' width='730'></img></p>", "expr": "reward", "time_elapsed": 93401, "internal_node_id": "0.0-1.0-16.0", "key_press": 80, "trial_index": 17, "gend": "female", "condition": 2}, {"rt": 1227, "trial_type": "single-stim", "name": "KJ", "stimulus": "<p class='center-content'>Is this a smile?</p><p class='center-content'><img src='img/KJ.jpg' height='410' width='730'></img></p>", "expr": "neutral", "time_elapsed": 94633, "internal_node_id": "0.0-1.0-17.0", "key_press": 80, "trial_index": 18, "gend": "female", "condition": 2}, {"rt": 1443, "trial_type": "single-stim", "name": "Ashley", "stimulus": "<p class='center-content'>Is this a smile?</p><p class='center-content'><img src='img/Ashley_Dominance.jpg' height='410' width='730'></img></p>", "expr": "dominance", "time_elapsed": 96081, "internal_node_id": "0.0-1.0-18.0", "key_press": 80, "trial_index": 19, "gend": "female", "condition": 2}, {"rt": 1045, "trial_type": "single-stim", "name": "Anna", "stimulus": "<p class='center-content'>Is this a smile?</p><p class='center-content'><img src='img/Anna_Affiliation.jpg' height='410' width='730'></img></p>", "expr": "affiliation", "time_elapsed": 97129, "internal_node_id": "0.0-1.0-19.0", "key_press": 80, "trial_index": 20, "gend": "female", "condition": 2}, {"rt": 872, "trial_type": "single-stim", "name": "Ashley", "stimulus": "<p class='center-content'>Is this a smile?</p><p class='center-content'><img src='img/Ashley_Reward.jpg' height='410' width='730'></img></p>", "expr": "reward", "time_elapsed": 98009, "internal_node_id": "0.0-1.0-20.0", "key_press": 80, "trial_index": 21, "gend": "female", "condition": 2}, {"rt": 796, "trial_type": "single-stim", "name": "Zach", "stimulus": "<p class='center-content'>Is this a smile?</p><p class='center-content'><img src='img/Zach_Disgust.jpg' height='410' width='730'></img></p>", "expr": "disgust", "time_elapsed": 98809, "internal_node_id": "0.0-1.0-21.0", "key_press": 81, "trial_index": 22, "gend": "male", "condition": 2}, {"rt": 954, "trial_type": "single-stim", "name": "Andrew", "stimulus": "<p class='center-content'>Is this a smile?</p><p class='center-content'><img src='img/Andrew_Dominance.jpg' height='410' width='730'></img></p>", "expr": "dominance", "time_elapsed": 99769, "internal_node_id": "0.0-1.0-22.0", "key_press": 80, "trial_index": 23, "gend": "male", "condition": 2}, {"rt": 1226, "trial_type": "single-stim", "name": "Marcus", "stimulus": "<p class='center-content'>Is this a smile?</p><p class='center-content'><img src='img/Marcus_Affiliation.jpg' height='410' width='730'></img></p>", "expr": "affiliation", "time_elapsed": 101002, "internal_node_id": "0.0-1.0-23.0", "key_press": 80, "trial_index": 24, "gend": "male", "condition": 2}, {"rt": 1326, "trial_type": "single-stim", "name": "Maurice", "stimulus": "<p class='center-content'>Is this a smile?</p><p class='center-content'><img src='img/Maurice_Dominance.jpg' height='410' width='730'></img></p>", "expr": "dominance", "time_elapsed": 102337, "internal_node_id": "0.0-1.0-24.0", "key_press": 80, "trial_index": 25, "gend": "male", "condition": 2}, {"rt": 938, "trial_type": "single-stim", "name": "Jourdan", "stimulus": "<p class='center-content'>Is this a smile?</p><p class='center-content'><img src='img/Jourdan.jpg' height='410' width='730'></img></p>", "expr": "neutral", "time_elapsed": 103281, "internal_node_id": "0.0-1.0-25.0", "key_press": 81, "trial_index": 26, "gend": "male", "condition": 2}, {"rt": 1449, "trial_type": "single-stim", "name": "Andrew", "stimulus": "<p class='center-content'>Is this a smile?</p><p class='center-content'><img src='img/Andrew_Disgust.jpg' height='410' width='730'></img></p>", "expr": "disgust", "time_elapsed": 104737, "internal_node_id": "0.0-1.0-26.0", "key_press": 81, "trial_index": 27, "gend": "male", "condition": 2}, {"rt": 747, "trial_type": "single-stim", "name": "Zach", "stimulus": "<p class='center-content'>Is this a smile?</p><p class='center-content'><img src='img/Zach_Reward.jpg' height='410' width='730'></img></p>", "expr": "reward", "time_elapsed": 105490, "internal_node_id": "0.0-1.0-27.0", "key_press": 80, "trial_index": 28, "gend": "male", "condition": 2}, {"rt": 936, "trial_type": "single-stim", "name": "Marcus", "stimulus": "<p class='center-content'>Is this a smile?</p><p class='center-content'><img src='img/Marcus_Dominance.jpg' height='410' width='730'></img></p>", "expr": "dominance", "time_elapsed": 106433, "internal_node_id": "0.0-1.0-28.0", "key_press": 80, "trial_index": 29, "gend": "male", "condition": 2}, {"rt": 1116, "trial_type": "single-stim", "name": "Ashley", "stimulus": "<p class='center-content'>Is this a smile?</p><p class='center-content'><img src='img/Ashley.jpg' height='410' width='730'></img></p>", "expr": "neutral", "time_elapsed": 107553, "internal_node_id": "0.0-1.0-29.0", "key_press": 81, "trial_index": 30, "gend": "female", "condition": 2}, {"rt": 810, "trial_type": "single-stim", "name": "Anthony", "stimulus": "<p class='center-content'>Is this a smile?</p><p class='center-content'><img src='img/Anthony_Reward.jpg' height='410' width='730'></img></p>", "expr": "reward", "time_elapsed": 108369, "internal_node_id": "0.0-1.0-30.0", "key_press": 80, "trial_index": 31, "gend": "male", "condition": 2}, {"rt": 1250, "trial_type": "single-stim", "name": "Lulu", "stimulus": "<p class='center-content'>Is this a smile?</p><p class='center-content'><img src='img/Lulu_Dominance.jpg' height='410' width='730'></img></p>", "expr": "dominance", "time_elapsed": 109625, "internal_node_id": "0.0-1.0-31.0", "key_press": 80, "trial_index": 32, "gend": "female", "condition": 2}, {"rt": 649, "trial_type": "single-stim", "name": "Dmonte", "stimulus": "<p class='center-content'>Is this a smile?</p><p class='center-content'><img src='img/Dmonte_Reward.jpg' height='410' width='730'></img></p>", "expr": "reward", "time_elapsed": 110281, "internal_node_id": "0.0-1.0-32.0", "key_press": 80, "trial_index": 33, "gend": "male", "condition": 2}, {"rt": 1065, "trial_type": "single-stim", "name": "KJ", "stimulus": "<p class='center-content'>Is this a smile?</p><p class='center-content'><img src='img/KJ_Disgust.jpg' height='410' width='730'></img></p>", "expr": "disgust", "time_elapsed": 111353, "internal_node_id": "0.0-1.0-33.0", "key_press": 81, "trial_index": 34, "gend": "female", "condition": 2}, {"rt": 679, "trial_type": "single-stim", "name": "KJ", "stimulus": "<p class='center-content'>Is this a smile?</p><p class='center-content'><img src='img/KJ_Dominance.jpg' height='410' width='730'></img></p>", "expr": "dominance", "time_elapsed": 112041, "internal_node_id": "0.0-1.0-34.0", "key_press": 80, "trial_index": 35, "gend": "female", "condition": 2}, {"rt": 740, "trial_type": "single-stim", "name": "Jourdan", "stimulus": "<p class='center-content'>Is this a smile?</p><p class='center-content'><img src='img/Jourdan_Reward.jpg' height='410' width='730'></img></p>", "expr": "reward", "time_elapsed": 112785, "internal_node_id": "0.0-1.0-35.0", "key_press": 80, "trial_index": 36, "gend": "male", "condition": 2}, {"rt": 743, "trial_type": "single-stim", "name": "Joeseph", "stimulus": "<p class='center-content'>Is this a smile?</p><p class='center-content'><img src='img/Joeseph.jpg' height='410' width='730'></img></p>", "expr": "neutral", "time_elapsed": 113536, "internal_node_id": "0.0-1.0-36.0", "key_press": 81, "trial_index": 37, "gend": "male", "condition": 2}, {"rt": 708, "trial_type": "single-stim", "name": "Naomi", "stimulus": "<p class='center-content'>Is this a smile?</p><p class='center-content'><img src='img/Naomi_Affiliation.jpg' height='410' width='730'></img></p>", "expr": "affiliation", "time_elapsed": 114249, "internal_node_id": "0.0-1.0-37.0", "key_press": 80, "trial_index": 38, "gend": "female", "condition": 2}, {"rt": 1219, "trial_type": "single-stim", "name": "Mary", "stimulus": "<p class='center-content'>Is this a smile?</p><p class='center-content'><img src='img/Mary_Reward.jpg' height='410' width='730'></img></p>", "expr": "reward", "time_elapsed": 115472, "internal_node_id": "0.0-1.0-38.0", "key_press": 80, "trial_index": 39, "gend": "female", "condition": 2}, {"rt": 716, "trial_type": "single-stim", "name": "Lulu", "stimulus": "<p class='center-content'>Is this a smile?</p><p class='center-content'><img src='img/Lulu_Reward.jpg' height='410' width='730'></img></p>", "expr": "reward", "time_elapsed": 116193, "internal_node_id": "0.0-1.0-39.0", "key_press": 80, "trial_index": 40, "gend": "female", "condition": 2}, {"rt": 953, "trial_type": "single-stim", "name": "Mary", "stimulus": "<p class='center-content'>Is this a smile?</p><p class='center-content'><img src='img/Mary_Disgust.jpg' height='410' width='730'></img></p>", "expr": "disgust", "time_elapsed": 117153, "internal_node_id": "0.0-1.0-40.0", "key_press": 81, "trial_index": 41, "gend": "female", "condition": 2}, {"rt": 1746, "trial_type": "single-stim", "name": "Mary", "stimulus": "<p class='center-content'>Is this a smile?</p><p class='center-content'><img src='img/Mary_Affiliation.jpg' height='410' width='730'></img></p>", "expr": "affiliation", "time_elapsed": 118904, "internal_node_id": "0.0-1.0-41.0", "key_press": 80, "trial_index": 42, "gend": "female", "condition": 2}, {"rt": 1068, "trial_type": "single-stim", "name": "Andrew", "stimulus": "<p class='center-content'>Is this a smile?</p><p class='center-content'><img src='img/Andrew_Affiliation.jpg' height='410' width='730'></img></p>", "expr": "affiliation", "time_elapsed": 119977, "internal_node_id": "0.0-1.0-42.0", "key_press": 80, "trial_index": 43, "gend": "male", "condition": 2}, {"rt": 931, "trial_type": "single-stim", "name": "Jessica", "stimulus": "<p class='center-content'>Is this a smile?</p><p class='center-content'><img src='img/Jessica_Disgust.jpg' height='410' width='730'></img></p>", "expr": "disgust", "time_elapsed": 120913, "internal_node_id": "0.0-1.0-43.0", "key_press": 81, "trial_index": 44, "gend": "female", "condition": 2}, {"rt": 978, "trial_type": "single-stim", "name": "Dmonte", "stimulus": "<p class='center-content'>Is this a smile?</p><p class='center-content'><img src='img/Dmonte_Disgust.jpg' height='410' width='730'></img></p>", "expr": "disgust", "time_elapsed": 121897, "internal_node_id": "0.0-1.0-44.0", "key_press": 81, "trial_index": 45, "gend": "male", "condition": 2}, {"rt": 1281, "trial_type": "single-stim", "name": "Anthony", "stimulus": "<p class='center-content'>Is this a smile?</p><p class='center-content'><img src='img/Anthony_Disgust.jpg' height='410' width='730'></img></p>", "expr": "disgust", "time_elapsed": 123185, "internal_node_id": "0.0-1.0-45.0", "key_press": 81, "trial_index": 46, "gend": "male", "condition": 2}, {"rt": 864, "trial_type": "single-stim", "name": "Anthony", "stimulus": "<p class='center-content'>Is this a smile?</p><p class='center-content'><img src='img/Anthony_Affiliation.jpg' height='410' width='730'></img></p>", "expr": "affiliation", "time_elapsed": 124056, "internal_node_id": "0.0-1.0-46.0", "key_press": 80, "trial_index": 47, "gend": "male", "condition": 2}, {"rt": 1484, "trial_type": "single-stim", "name": "Mary", "stimulus": "<p class='center-content'>Is this a smile?</p><p class='center-content'><img src='img/Mary_Dominance.jpg' height='410' width='730'></img></p>", "expr": "dominance", "time_elapsed": 125545, "internal_node_id": "0.0-1.0-47.0", "key_press": 81, "trial_index": 48, "gend": "female", "condition": 2}, {"rt": 1456, "trial_type": "single-stim", "name": "Andrew", "stimulus": "<p class='center-content'>Is this a smile?</p><p class='center-content'><img src='img/Andrew.jpg' height='410' width='730'></img></p>", "expr": "neutral", "time_elapsed": 127008, "internal_node_id": "0.0-1.0-48.0", "key_press": 81, "trial_index": 49, "gend": "male", "condition": 2}, {"rt": 1189, "trial_type": "single-stim", "name": "Anna", "stimulus": "<p class='center-content'>Is this a smile?</p><p class='center-content'><img src='img/Anna.jpg' height='410' width='730'></img></p>", "expr": "neutral", "time_elapsed": 128201, "internal_node_id": "0.0-1.0-49.0", "key_press": 81, "trial_index": 50, "gend": "female", "condition": 2}, {"rt": 833, "trial_type": "single-stim", "name": "Zach", "stimulus": "<p class='center-content'>Is this a smile?</p><p class='center-content'><img src='img/Zach_Affiliation.jpg' height='410' width='730'></img></p>", "expr": "affiliation", "time_elapsed": 129041, "internal_node_id": "0.0-1.0-50.0", "key_press": 80, "trial_index": 51, "gend": "male", "condition": 2}, {"rt": 937, "trial_type": "single-stim", "name": "Zach", "stimulus": "<p class='center-content'>Is this a smile?</p><p class='center-content'><img src='img/Zach.jpg' height='410' width='730'></img></p>", "expr": "neutral", "time_elapsed": 129985, "internal_node_id": "0.0-1.0-51.0", "key_press": 81, "trial_index": 52, "gend": "male", "condition": 2}, {"rt": 683, "trial_type": "single-stim", "name": "Joeseph", "stimulus": "<p class='center-content'>Is this a smile?</p><p class='center-content'><img src='img/Joeseph_Reward.jpg' height='410' width='730'></img></p>", "expr": "reward", "time_elapsed": 130673, "internal_node_id": "0.0-1.0-52.0", "key_press": 80, "trial_index": 53, "gend": "male", "condition": 2}, {"rt": 1153, "trial_type": "single-stim", "name": "Zach", "stimulus": "<p class='center-content'>Is this a smile?</p><p class='center-content'><img src='img/Zach_Dominance.jpg' height='410' width='730'></img></p>", "expr": "dominance", "time_elapsed": 131832, "internal_node_id": "0.0-1.0-53.0", "key_press": 80, "trial_index": 54, "gend": "male", "condition": 2}, {"rt": 781, "trial_type": "single-stim", "name": "Marcus", "stimulus": "<p class='center-content'>Is this a smile?</p><p class='center-content'><img src='img/Marcus_Disgust.jpg' height='410' width='730'></img></p>", "expr": "disgust", "time_elapsed": 132617, "internal_node_id": "0.0-1.0-54.0", "key_press": 81, "trial_index": 55, "gend": "male", "condition": 2}, {"rt": 865, "trial_type": "single-stim", "name": "Mary", "stimulus": "<p class='center-content'>Is this a smile?</p><p class='center-content'><img src='img/Mary.jpg' height='410' width='730'></img></p>", "expr": "neutral", "time_elapsed": 133489, "internal_node_id": "0.0-1.0-55.0", "key_press": 81, "trial_index": 56, "gend": "female", "condition": 2}, {"rt": 688, "trial_type": "single-stim", "name": "Ashley", "stimulus": "<p class='center-content'>Is this a smile?</p><p class='center-content'><img src='img/Ashley_Disgust.jpg' height='410' width='730'></img></p>", "expr": "disgust", "time_elapsed": 134184, "internal_node_id": "0.0-1.0-56.0", "key_press": 81, "trial_index": 57, "gend": "female", "condition": 2}, {"rt": 1027, "trial_type": "single-stim", "name": "Naomi", "stimulus": "<p class='center-content'>Is this a smile?</p><p class='center-content'><img src='img/Naomi.jpg' height='410' width='730'></img></p>", "expr": "neutral", "time_elapsed": 135216, "internal_node_id": "0.0-1.0-57.0", "key_press": 80, "trial_index": 58, "gend": "female", "condition": 2}, {"rt": 1172, "trial_type": "single-stim", "name": "Marcus", "stimulus": "<p class='center-content'>Is this a smile?</p><p class='center-content'><img src='img/Marcus.jpg' height='410' width='730'></img></p>", "expr": "neutral", "time_elapsed": 136392, "internal_node_id": "0.0-1.0-58.0", "key_press": 81, "trial_index": 59, "gend": "male", "condition": 2}, {"rt": 1290, "trial_type": "single-stim", "name": "Lulu", "stimulus": "<p class='center-content'>Is this a smile?</p><p class='center-content'><img src='img/Lulu.jpg' height='410' width='730'></img></p>", "expr": "neutral", "time_elapsed": 137689, "internal_node_id": "0.0-1.0-59.0", "key_press": 81, "trial_index": 60, "gend": "female", "condition": 2}, {"rt": 752, "trial_type": "single-stim", "name": "Lulu", "stimulus": "<p class='center-content'>Is this a smile?</p><p class='center-content'><img src='img/Lulu_Disgust.jpg' height='410' width='730'></img></p>", "expr": "disgust", "time_elapsed": 138448, "internal_node_id": "0.0-1.0-60.0", "key_press": 81, "trial_index": 61, "gend": "female", "condition": 2}, {"rt": 2707, "trial_type": "single-stim", "name": "Joeseph", "stimulus": "<p class='center-content'>Is this a smile?</p><p class='center-content'><img src='img/Joeseph_Dominance.jpg' height='410' width='730'></img></p>", "expr": "dominance", "time_elapsed": 141160, "internal_node_id": "0.0-1.0-61.0", "key_press": 80, "trial_index": 62, "gend": "male", "condition": 2}, {"rt": 1018, "trial_type": "single-stim", "name": "Jessica", "stimulus": "<p class='center-content'>Is this a smile?</p><p class='center-content'><img src='img/Jessica_Reward.jpg' height='410' width='730'></img></p>", "expr": "reward", "time_elapsed": 142185, "internal_node_id": "0.0-1.0-62.0", "key_press": 80, "trial_index": 63, "gend": "female", "condition": 2}, {"rt": 954, "trial_type": "single-stim", "name": "Dmonte", "stimulus": "<p class='center-content'>Is this a smile?</p><p class='center-content'><img src='img/Dmonte.jpg' height='410' width='730'></img></p>", "expr": "neutral", "time_elapsed": 143145, "internal_node_id": "0.0-1.0-63.0", "key_press": 81, "trial_index": 64, "gend": "male", "condition": 2}, {"rt": 1546, "trial_type": "single-stim", "name": "Joeseph", "stimulus": "<p class='center-content'>Is this a smile?</p><p class='center-content'><img src='img/Joeseph_Disgust.jpg' height='410' width='730'></img></p>", "expr": "disgust", "time_elapsed": 144695, "internal_node_id": "0.0-1.0-64.0", "key_press": 81, "trial_index": 65, "gend": "male", "condition": 2}, {"rt": 748, "trial_type": "single-stim", "name": "Anna", "stimulus": "<p class='center-content'>Is this a smile?</p><p class='center-content'><img src='img/Anna_Dominance.jpg' height='410' width='730'></img></p>", "expr": "dominance", "time_elapsed": 145448, "internal_node_id": "0.0-1.0-65.0", "key_press": 80, "trial_index": 66, "gend": "female", "condition": 2}, {"rt": 794, "trial_type": "single-stim", "name": "Maurice", "stimulus": "<p class='center-content'>Is this a smile?</p><p class='center-content'><img src='img/Maurice.jpg' height='410' width='730'></img></p>", "expr": "neutral", "time_elapsed": 146248, "internal_node_id": "0.0-1.0-66.0", "key_press": 81, "trial_index": 67, "gend": "male", "condition": 2}, {"rt": 923, "trial_type": "single-stim", "name": "Naomi", "stimulus": "<p class='center-content'>Is this a smile?</p><p class='center-content'><img src='img/Naomi_DIsgust.jpg' height='410' width='730'></img></p>", "expr": "disgust", "time_elapsed": 147176, "internal_node_id": "0.0-1.0-67.0", "key_press": 81, "trial_index": 68, "gend": "female", "condition": 2}, {"rt": 818, "trial_type": "single-stim", "name": "Dmonte", "stimulus": "<p class='center-content'>Is this a smile?</p><p class='center-content'><img src='img/Dmonte_Affiliation.jpg' height='410' width='730'></img></p>", "expr": "affiliation", "time_elapsed": 148000, "internal_node_id": "0.0-1.0-68.0", "key_press": 80, "trial_index": 69, "gend": "male", "condition": 2}, {"rt": 698, "trial_type": "single-stim", "name": "Marcus", "stimulus": "<p class='center-content'>Is this a smile?</p><p class='center-content'><img src='img/Marcus_Reward.jpg' height='410' width='730'></img></p>", "expr": "reward", "time_elapsed": 148704, "internal_node_id": "0.0-1.0-69.0", "key_press": 80, "trial_index": 70, "gend": "male", "condition": 2}, {"rt": 802, "trial_type": "single-stim", "name": "Anna", "stimulus": "<p class='center-content'>Is this a smile?</p><p class='center-content'><img src='img/Anna_Disgust.jpg' height='410' width='730'></img></p>", "expr": "disgust", "time_elapsed": 149512, "internal_node_id": "0.0-1.0-70.0", "key_press": 81, "trial_index": 71, "gend": "female", "condition": 2}, {"rt": 809, "trial_type": "single-stim", "name": "Jourdan", "stimulus": "<p class='center-content'>Is this a smile?</p><p class='center-content'><img src='img/Jourdan_Disgust.jpg' height='410' width='730'></img></p>", "expr": "disgust", "time_elapsed": 150327, "internal_node_id": "0.0-1.0-71.0", "key_press": 81, "trial_index": 72, "gend": "male", "condition": 2}, {"rt": 948, "trial_type": "single-stim", "name": "Maurice", "stimulus": "<p class='center-content'>Is this a smile?</p><p class='center-content'><img src='img/Maurice_Affiliation.jpg' height='410' width='730'></img></p>", "expr": "affiliation", "time_elapsed": 151279, "internal_node_id": "0.0-1.0-72.0", "key_press": 80, "trial_index": 73, "gend": "male", "condition": 2}, {"rt": 925, "trial_type": "single-stim", "name": "KJ", "stimulus": "<p class='center-content'>Is this a smile?</p><p class='center-content'><img src='img/KJ_Affiliation.jpg' height='410' width='730'></img></p>", "expr": "affiliation", "time_elapsed": 152208, "internal_node_id": "0.0-1.0-73.0", "key_press": 80, "trial_index": 74, "gend": "female", "condition": 2}, {"rt": 929, "trial_type": "single-stim", "name": "Ashley", "stimulus": "<p class='center-content'>Is this a smile?</p><p class='center-content'><img src='img/Ashley_Affiliation.jpg' height='410' width='730'></img></p>", "expr": "affiliation", "time_elapsed": 153144, "internal_node_id": "0.0-1.0-74.0", "key_press": 80, "trial_index": 75, "gend": "female", "condition": 2}, {"rt": 7626, "trial_type": "survey-multi-choice", "responses": "{\"Q0\":\"Male\",\"Q1\":\"White/Caucasian/European American\",\"Q2\":\"Right\"}", "time_elapsed": 160800, "internal_node_id": "0.0-2.0", "trial_index": 76}, {"rt": 3922, "trial_type": "survey-text", "responses": "{\"Q0\":\"no\"}", "time_elapsed": 165733, "internal_node_id": "0.0-3.0", "trial_index": 77}, {"rt": 4474, "trial_type": "text", "time_elapsed": 171215, "internal_node_id": "0.0-4.0", "key_press": 32, "trial_index": 78}]}, "AcceptTime": "2017-12-05T23:04:10Z", "HITId": "3GMLHYZ0LEXKH19JZZ4790SENP6YUD", "Assignment": "", "AssignmentStatus": "Approved", "SubmitTime": "2017-12-05T23:07:41Z"}