{"ApprovalTime": "2017-12-05T22:24:18Z", "AutoApprovalTime": "2017-12-05T22:24:12Z", "AssignmentId": "33FOTY3KEMLUSLF9RMHZQRRNEU6C13", "WorkerId": "anon6", "answers": {"data": [{"rt": 81012, "trial_type": "text", "time_elapsed": 81020, "internal_node_id": "0.0-0.0", "key_press": 32, "trial_index": 0}, {"rt": 1212, "trial_type": "single-stim", "name": "Jourdan", "stimulus": "<p class='center-content'>Is this a smile?</p><p class='center-content'><img src='img/Jourdan_Affiliation.jpg' height='410' width='730'></img></p>", "expr": "affiliation", "time_elapsed": 84246, "internal_node_id": "0.0-1.0-0.0", "key_press": 80, "trial_index": 1, "gend": "male", "condition": 2}, {"rt": 1194, "trial_type": "single-stim", "name": "Andrew", "stimulus": "<p class='center-content'>Is this a smile?</p><p class='center-content'><img src='img/Andrew_Disgust.jpg' height='410' width='730'></img></p>", "expr": "disgust", "time_elapsed": 85447, "internal_node_id": "0.0-1.0-1.0", "key_press": 81, "trial_index": 2, "gend": "male", "condition": 2}, {"rt": 869, "trial_type": "single-stim", "name": "Jessica", "stimulus": "<p class='center-content'>Is this a smile?</p><p class='center-content'><img src='img/Jessica_Disgust.jpg' height='410' width='730'></img></p>", "expr": "disgust", "time_elapsed": 86321, "internal_node_id": "0.0-1.0-2.0", "key_press": 81, "trial_index": 3, "gend": "female", "condition": 2}, {"rt": 892, "trial_type": "single-stim", "name": "Andrew", "stimulus": "<p class='center-content'>Is this a smile?</p><p class='center-content'><img src='img/Andrew_Reward.jpg' height='410' width='730'></img></p>", "expr": "reward", "time_elapsed": 87218, "internal_node_id": "0.0-1.0-3.0", "key_press": 80, "trial_index": 4, "gend": "male", "condition": 2}, {"rt": 770, "trial_type": "single-stim", "name": "Zach", "stimulus": "<p class='center-content'>Is this a smile?</p><p class='center-content'><img src='img/Zach_Reward.jpg' height='410' width='730'></img></p>", "expr": "reward", "time_elapsed": 87992, "internal_node_id": "0.0-1.0-4.0", "key_press": 80, "trial_index": 5, "gend": "male", "condition": 2}, {"rt": 1118, "trial_type": "single-stim", "name": "Zach", "stimulus": "<p class='center-content'>Is this a smile?</p><p class='center-content'><img src='img/Zach_Dominance.jpg' height='410' width='730'></img></p>", "expr": "dominance", "time_elapsed": 89116, "internal_node_id": "0.0-1.0-5.0", "key_press": 80, "trial_index": 6, "gend": "male", "condition": 2}, {"rt": 713, "trial_type": "single-stim", "name": "Marcus", "stimulus": "<p class='center-content'>Is this a smile?</p><p class='center-content'><img src='img/Marcus_Disgust.jpg' height='410' width='730'></img></p>", "expr": "disgust", "time_elapsed": 89833, "internal_node_id": "0.0-1.0-6.0", "key_press": 81, "trial_index": 7, "gend": "male", "condition": 2}, {"rt": 738, "trial_type": "single-stim", "name": "Maurice", "stimulus": "<p class='center-content'>Is this a smile?</p><p class='center-content'><img src='img/Maurice_Affiliation.jpg' height='410' width='730'></img></p>", "expr": "affiliation", "time_elapsed": 90576, "internal_node_id": "0.0-1.0-7.0", "key_press": 81, "trial_index": 8, "gend": "male", "condition": 2}, {"rt": 1598, "trial_type": "single-stim", "name": "Andrew", "stimulus": "<p class='center-content'>Is this a smile?</p><p class='center-content'><img src='img/Andrew_Dominance.jpg' height='410' width='730'></img></p>", "expr": "dominance", "time_elapsed": 92181, "internal_node_id": "0.0-1.0-8.0", "key_press": 80, "trial_index": 9, "gend": "male", "condition": 2}, {"rt": 1229, "trial_type": "single-stim", "name": "Anna", "stimulus": "<p class='center-content'>Is this a smile?</p><p class='center-content'><img src='img/Anna_Dominance.jpg' height='410' width='730'></img></p>", "expr": "dominance", "time_elapsed": 93414, "internal_node_id": "0.0-1.0-9.0", "key_press": 81, "trial_index": 10, "gend": "female", "condition": 2}, {"rt": 1338, "trial_type": "single-stim", "name": "Mary", "stimulus": "<p class='center-content'>Is this a smile?</p><p class='center-content'><img src='img/Mary_Affiliation.jpg' height='410' width='730'></img></p>", "expr": "affiliation", "time_elapsed": 94756, "internal_node_id": "0.0-1.0-10.0", "key_press": 80, "trial_index": 11, "gend": "female", "condition": 2}, {"rt": 785, "trial_type": "single-stim", "name": "Marcus", "stimulus": "<p class='center-content'>Is this a smile?</p><p class='center-content'><img src='img/Marcus_Reward.jpg' height='410' width='730'></img></p>", "expr": "reward", "time_elapsed": 95548, "internal_node_id": "0.0-1.0-11.0", "key_press": 80, "trial_index": 12, "gend": "male", "condition": 2}, {"rt": 599, "trial_type": "single-stim", "name": "Maurice", "stimulus": "<p class='center-content'>Is this a smile?</p><p class='center-content'><img src='img/Maurice_Reward.jpg' height='410' width='730'></img></p>", "expr": "reward", "time_elapsed": 96151, "internal_node_id": "0.0-1.0-12.0", "key_press": 80, "trial_index": 13, "gend": "male", "condition": 2}, {"rt": 872, "trial_type": "single-stim", "name": "Maurice", "stimulus": "<p class='center-content'>Is this a smile?</p><p class='center-content'><img src='img/Maurice_Disgust.jpg' height='410' width='730'></img></p>", "expr": "disgust", "time_elapsed": 97027, "internal_node_id": "0.0-1.0-13.0", "key_press": 81, "trial_index": 14, "gend": "male", "condition": 2}, {"rt": 1028, "trial_type": "single-stim", "name": "Marcus", "stimulus": "<p class='center-content'>Is this a smile?</p><p class='center-content'><img src='img/Marcus.jpg' height='410' width='730'></img></p>", "expr": "neutral", "time_elapsed": 98060, "internal_node_id": "0.0-1.0-14.0", "key_press": 81, "trial_index": 15, "gend": "male", "condition": 2}, {"rt": 883, "trial_type": "single-stim", "name": "Anna", "stimulus": "<p class='center-content'>Is this a smile?</p><p class='center-content'><img src='img/Anna_Disgust.jpg' height='410' width='730'></img></p>", "expr": "disgust", "time_elapsed": 98950, "internal_node_id": "0.0-1.0-15.0", "key_press": 81, "trial_index": 16, "gend": "female", "condition": 2}, {"rt": 1021, "trial_type": "single-stim", "name": "Marcus", "stimulus": "<p class='center-content'>Is this a smile?</p><p class='center-content'><img src='img/Marcus_Dominance.jpg' height='410' width='730'></img></p>", "expr": "dominance", "time_elapsed": 99978, "internal_node_id": "0.0-1.0-16.0", "key_press": 81, "trial_index": 17, "gend": "male", "condition": 2}, {"rt": 988, "trial_type": "single-stim", "name": "Anna", "stimulus": "<p class='center-content'>Is this a smile?</p><p class='center-content'><img src='img/Anna_Affiliation.jpg' height='410' width='730'></img></p>", "expr": "affiliation", "time_elapsed": 100972, "internal_node_id": "0.0-1.0-17.0", "key_press": 80, "trial_index": 18, "gend": "female", "condition": 2}, {"rt": 749, "trial_type": "single-stim", "name": "Lulu", "stimulus": "<p class='center-content'>Is this a smile?</p><p class='center-content'><img src='img/Lulu_Disgust.jpg' height='410' width='730'></img></p>", "expr": "disgust", "time_elapsed": 101728, "internal_node_id": "0.0-1.0-18.0", "key_press": 81, "trial_index": 19, "gend": "female", "condition": 2}, {"rt": 823, "trial_type": "single-stim", "name": "Lulu", "stimulus": "<p class='center-content'>Is this a smile?</p><p class='center-content'><img src='img/Lulu_Dominance.jpg' height='410' width='730'></img></p>", "expr": "dominance", "time_elapsed": 102556, "internal_node_id": "0.0-1.0-19.0", "key_press": 80, "trial_index": 20, "gend": "female", "condition": 2}, {"rt": 1779, "trial_type": "single-stim", "name": "Marcus", "stimulus": "<p class='center-content'>Is this a smile?</p><p class='center-content'><img src='img/Marcus_Affiliation.jpg' height='410' width='730'></img></p>", "expr": "affiliation", "time_elapsed": 104342, "internal_node_id": "0.0-1.0-20.0", "key_press": 81, "trial_index": 21, "gend": "male", "condition": 2}, {"rt": 816, "trial_type": "single-stim", "name": "Jourdan", "stimulus": "<p class='center-content'>Is this a smile?</p><p class='center-content'><img src='img/Jourdan_Disgust.jpg' height='410' width='730'></img></p>", "expr": "disgust", "time_elapsed": 105165, "internal_node_id": "0.0-1.0-21.0", "key_press": 81, "trial_index": 22, "gend": "male", "condition": 2}, {"rt": 785, "trial_type": "single-stim", "name": "Joeseph", "stimulus": "<p class='center-content'>Is this a smile?</p><p class='center-content'><img src='img/Joeseph_Dominance.jpg' height='410' width='730'></img></p>", "expr": "dominance", "time_elapsed": 105954, "internal_node_id": "0.0-1.0-22.0", "key_press": 81, "trial_index": 23, "gend": "male", "condition": 2}, {"rt": 1233, "trial_type": "single-stim", "name": "Anthony", "stimulus": "<p class='center-content'>Is this a smile?</p><p class='center-content'><img src='img/Anthony_Affiliation.jpg' height='410' width='730'></img></p>", "expr": "affiliation", "time_elapsed": 107192, "internal_node_id": "0.0-1.0-23.0", "key_press": 80, "trial_index": 24, "gend": "male", "condition": 2}, {"rt": 875, "trial_type": "single-stim", "name": "KJ", "stimulus": "<p class='center-content'>Is this a smile?</p><p class='center-content'><img src='img/KJ_Disgust.jpg' height='410' width='730'></img></p>", "expr": "disgust", "time_elapsed": 108073, "internal_node_id": "0.0-1.0-24.0", "key_press": 81, "trial_index": 25, "gend": "female", "condition": 2}, {"rt": 878, "trial_type": "single-stim", "name": "Lulu", "stimulus": "<p class='center-content'>Is this a smile?</p><p class='center-content'><img src='img/Lulu_Reward.jpg' height='410' width='730'></img></p>", "expr": "reward", "time_elapsed": 108958, "internal_node_id": "0.0-1.0-25.0", "key_press": 80, "trial_index": 26, "gend": "female", "condition": 2}, {"rt": 980, "trial_type": "single-stim", "name": "Joeseph", "stimulus": "<p class='center-content'>Is this a smile?</p><p class='center-content'><img src='img/Joeseph_Reward.jpg' height='410' width='730'></img></p>", "expr": "reward", "time_elapsed": 109944, "internal_node_id": "0.0-1.0-26.0", "key_press": 80, "trial_index": 27, "gend": "male", "condition": 2}, {"rt": 689, "trial_type": "single-stim", "name": "Lulu", "stimulus": "<p class='center-content'>Is this a smile?</p><p class='center-content'><img src='img/Lulu_Affiliation.jpg' height='410' width='730'></img></p>", "expr": "affiliation", "time_elapsed": 110640, "internal_node_id": "0.0-1.0-27.0", "key_press": 81, "trial_index": 28, "gend": "female", "condition": 2}, {"rt": 725, "trial_type": "single-stim", "name": "KJ", "stimulus": "<p class='center-content'>Is this a smile?</p><p class='center-content'><img src='img/KJ_Reward.jpg' height='410' width='730'></img></p>", "expr": "reward", "time_elapsed": 111370, "internal_node_id": "0.0-1.0-28.0", "key_press": 80, "trial_index": 29, "gend": "female", "condition": 2}, {"rt": 3255, "trial_type": "single-stim", "name": "Joeseph", "stimulus": "<p class='center-content'>Is this a smile?</p><p class='center-content'><img src='img/Joeseph_Affiliation.jpg' height='410' width='730'></img></p>", "expr": "affiliation", "time_elapsed": 114630, "internal_node_id": "0.0-1.0-29.0", "key_press": 81, "trial_index": 30, "gend": "male", "condition": 2}, {"rt": 2773, "trial_type": "single-stim", "name": "Naomi", "stimulus": "<p class='center-content'>Is this a smile?</p><p class='center-content'><img src='img/Naomi_Dominance.jpg' height='410' width='730'></img></p>", "expr": "dominance", "time_elapsed": 117408, "internal_node_id": "0.0-1.0-30.0", "key_press": 81, "trial_index": 31, "gend": "female", "condition": 2}, {"rt": 1101, "trial_type": "single-stim", "name": "Jessica", "stimulus": "<p class='center-content'>Is this a smile?</p><p class='center-content'><img src='img/Jessica_Reward.jpg' height='410' width='730'></img></p>", "expr": "reward", "time_elapsed": 118514, "internal_node_id": "0.0-1.0-31.0", "key_press": 81, "trial_index": 32, "gend": "female", "condition": 2}, {"rt": 1098, "trial_type": "single-stim", "name": "Dmonte", "stimulus": "<p class='center-content'>Is this a smile?</p><p class='center-content'><img src='img/Dmonte_Dominance.jpg' height='410' width='730'></img></p>", "expr": "dominance", "time_elapsed": 119616, "internal_node_id": "0.0-1.0-32.0", "key_press": 81, "trial_index": 33, "gend": "male", "condition": 2}, {"rt": 2086, "trial_type": "single-stim", "name": "Jourdan", "stimulus": "<p class='center-content'>Is this a smile?</p><p class='center-content'><img src='img/Jourdan_Reward.jpg' height='410' width='730'></img></p>", "expr": "reward", "time_elapsed": 121707, "internal_node_id": "0.0-1.0-33.0", "key_press": 81, "trial_index": 34, "gend": "male", "condition": 2}, {"rt": 4671, "trial_type": "single-stim", "name": "Naomi", "stimulus": "<p class='center-content'>Is this a smile?</p><p class='center-content'><img src='img/Naomi.jpg' height='410' width='730'></img></p>", "expr": "neutral", "time_elapsed": 126384, "internal_node_id": "0.0-1.0-34.0", "key_press": 81, "trial_index": 35, "gend": "female", "condition": 2}, {"rt": 1507, "trial_type": "single-stim", "name": "Jourdan", "stimulus": "<p class='center-content'>Is this a smile?</p><p class='center-content'><img src='img/Jourdan_Dominance.jpg' height='410' width='730'></img></p>", "expr": "dominance", "time_elapsed": 127896, "internal_node_id": "0.0-1.0-35.0", "key_press": 81, "trial_index": 36, "gend": "male", "condition": 2}, {"rt": 4681, "trial_type": "single-stim", "name": "Dmonte", "stimulus": "<p class='center-content'>Is this a smile?</p><p class='center-content'><img src='img/Dmonte_Disgust.jpg' height='410' width='730'></img></p>", "expr": "disgust", "time_elapsed": 132581, "internal_node_id": "0.0-1.0-36.0", "key_press": 81, "trial_index": 37, "gend": "male", "condition": 2}, {"rt": 736, "trial_type": "single-stim", "name": "Andrew", "stimulus": "<p class='center-content'>Is this a smile?</p><p class='center-content'><img src='img/Andrew.jpg' height='410' width='730'></img></p>", "expr": "neutral", "time_elapsed": 133322, "internal_node_id": "0.0-1.0-37.0", "key_press": 81, "trial_index": 38, "gend": "male", "condition": 2}, {"rt": 759, "trial_type": "single-stim", "name": "Zach", "stimulus": "<p class='center-content'>Is this a smile?</p><p class='center-content'><img src='img/Zach_Affiliation.jpg' height='410' width='730'></img></p>", "expr": "affiliation", "time_elapsed": 134087, "internal_node_id": "0.0-1.0-38.0", "key_press": 80, "trial_index": 39, "gend": "male", "condition": 2}, {"rt": 755, "trial_type": "single-stim", "name": "Mary", "stimulus": "<p class='center-content'>Is this a smile?</p><p class='center-content'><img src='img/Mary_Dominance.jpg' height='410' width='730'></img></p>", "expr": "dominance", "time_elapsed": 134848, "internal_node_id": "0.0-1.0-39.0", "key_press": 81, "trial_index": 40, "gend": "female", "condition": 2}, {"rt": 659, "trial_type": "single-stim", "name": "Anthony", "stimulus": "<p class='center-content'>Is this a smile?</p><p class='center-content'><img src='img/Anthony_Dominance.jpg' height='410' width='730'></img></p>", "expr": "dominance", "time_elapsed": 135512, "internal_node_id": "0.0-1.0-40.0", "key_press": 81, "trial_index": 41, "gend": "male", "condition": 2}, {"rt": 614, "trial_type": "single-stim", "name": "Dmonte", "stimulus": "<p class='center-content'>Is this a smile?</p><p class='center-content'><img src='img/Dmonte_Affiliation.jpg' height='410' width='730'></img></p>", "expr": "affiliation", "time_elapsed": 136130, "internal_node_id": "0.0-1.0-41.0", "key_press": 81, "trial_index": 42, "gend": "male", "condition": 2}, {"rt": 861, "trial_type": "single-stim", "name": "Anthony", "stimulus": "<p class='center-content'>Is this a smile?</p><p class='center-content'><img src='img/Anthony_Disgust.jpg' height='410' width='730'></img></p>", "expr": "disgust", "time_elapsed": 136995, "internal_node_id": "0.0-1.0-42.0", "key_press": 81, "trial_index": 43, "gend": "male", "condition": 2}, {"rt": 589, "trial_type": "single-stim", "name": "Zach", "stimulus": "<p class='center-content'>Is this a smile?</p><p class='center-content'><img src='img/Zach_Disgust.jpg' height='410' width='730'></img></p>", "expr": "disgust", "time_elapsed": 137588, "internal_node_id": "0.0-1.0-43.0", "key_press": 81, "trial_index": 44, "gend": "male", "condition": 2}, {"rt": 533, "trial_type": "single-stim", "name": "Jessica", "stimulus": "<p class='center-content'>Is this a smile?</p><p class='center-content'><img src='img/Jessica.jpg' height='410' width='730'></img></p>", "expr": "neutral", "time_elapsed": 138128, "internal_node_id": "0.0-1.0-44.0", "key_press": 81, "trial_index": 45, "gend": "female", "condition": 2}, {"rt": 616, "trial_type": "single-stim", "name": "Dmonte", "stimulus": "<p class='center-content'>Is this a smile?</p><p class='center-content'><img src='img/Dmonte.jpg' height='410' width='730'></img></p>", "expr": "neutral", "time_elapsed": 138749, "internal_node_id": "0.0-1.0-45.0", "key_press": 81, "trial_index": 46, "gend": "male", "condition": 2}, {"rt": 528, "trial_type": "single-stim", "name": "Joeseph", "stimulus": "<p class='center-content'>Is this a smile?</p><p class='center-content'><img src='img/Joeseph.jpg' height='410' width='730'></img></p>", "expr": "neutral", "time_elapsed": 139281, "internal_node_id": "0.0-1.0-46.0", "key_press": 81, "trial_index": 47, "gend": "male", "condition": 2}, {"rt": 613, "trial_type": "single-stim", "name": "Ashley", "stimulus": "<p class='center-content'>Is this a smile?</p><p class='center-content'><img src='img/Ashley_Reward.jpg' height='410' width='730'></img></p>", "expr": "reward", "time_elapsed": 139898, "internal_node_id": "0.0-1.0-47.0", "key_press": 80, "trial_index": 48, "gend": "female", "condition": 2}, {"rt": 552, "trial_type": "single-stim", "name": "Zach", "stimulus": "<p class='center-content'>Is this a smile?</p><p class='center-content'><img src='img/Zach.jpg' height='410' width='730'></img></p>", "expr": "neutral", "time_elapsed": 140454, "internal_node_id": "0.0-1.0-48.0", "key_press": 81, "trial_index": 49, "gend": "male", "condition": 2}, {"rt": 418, "trial_type": "single-stim", "name": "Jourdan", "stimulus": "<p class='center-content'>Is this a smile?</p><p class='center-content'><img src='img/Jourdan.jpg' height='410' width='730'></img></p>", "expr": "neutral", "time_elapsed": 140878, "internal_node_id": "0.0-1.0-49.0", "key_press": 81, "trial_index": 50, "gend": "male", "condition": 2}, {"rt": 477, "trial_type": "single-stim", "name": "Ashley", "stimulus": "<p class='center-content'>Is this a smile?</p><p class='center-content'><img src='img/Ashley.jpg' height='410' width='730'></img></p>", "expr": "neutral", "time_elapsed": 141359, "internal_node_id": "0.0-1.0-50.0", "key_press": 81, "trial_index": 51, "gend": "female", "condition": 2}, {"rt": 543, "trial_type": "single-stim", "name": "Ashley", "stimulus": "<p class='center-content'>Is this a smile?</p><p class='center-content'><img src='img/Ashley_Affiliation.jpg' height='410' width='730'></img></p>", "expr": "affiliation", "time_elapsed": 141908, "internal_node_id": "0.0-1.0-51.0", "key_press": 80, "trial_index": 52, "gend": "female", "condition": 2}, {"rt": 640, "trial_type": "single-stim", "name": "Anna", "stimulus": "<p class='center-content'>Is this a smile?</p><p class='center-content'><img src='img/Anna_Reward.jpg' height='410' width='730'></img></p>", "expr": "reward", "time_elapsed": 142554, "internal_node_id": "0.0-1.0-52.0", "key_press": 80, "trial_index": 53, "gend": "female", "condition": 2}, {"rt": 880, "trial_type": "single-stim", "name": "Mary", "stimulus": "<p class='center-content'>Is this a smile?</p><p class='center-content'><img src='img/Mary.jpg' height='410' width='730'></img></p>", "expr": "neutral", "time_elapsed": 143441, "internal_node_id": "0.0-1.0-53.0", "key_press": 81, "trial_index": 54, "gend": "female", "condition": 2}, {"rt": 658, "trial_type": "single-stim", "name": "Anthony", "stimulus": "<p class='center-content'>Is this a smile?</p><p class='center-content'><img src='img/Anthony_Reward.jpg' height='410' width='730'></img></p>", "expr": "reward", "time_elapsed": 144106, "internal_node_id": "0.0-1.0-54.0", "key_press": 80, "trial_index": 55, "gend": "male", "condition": 2}, {"rt": 575, "trial_type": "single-stim", "name": "Dmonte", "stimulus": "<p class='center-content'>Is this a smile?</p><p class='center-content'><img src='img/Dmonte_Reward.jpg' height='410' width='730'></img></p>", "expr": "reward", "time_elapsed": 144688, "internal_node_id": "0.0-1.0-55.0", "key_press": 80, "trial_index": 56, "gend": "male", "condition": 2}, {"rt": 596, "trial_type": "single-stim", "name": "Anna", "stimulus": "<p class='center-content'>Is this a smile?</p><p class='center-content'><img src='img/Anna.jpg' height='410' width='730'></img></p>", "expr": "neutral", "time_elapsed": 145289, "internal_node_id": "0.0-1.0-56.0", "key_press": 81, "trial_index": 57, "gend": "female", "condition": 2}, {"rt": 546, "trial_type": "single-stim", "name": "Andrew", "stimulus": "<p class='center-content'>Is this a smile?</p><p class='center-content'><img src='img/Andrew_Affiliation.jpg' height='410' width='730'></img></p>", "expr": "affiliation", "time_elapsed": 145841, "internal_node_id": "0.0-1.0-57.0", "key_press": 81, "trial_index": 58, "gend": "male", "condition": 2}, {"rt": 513, "trial_type": "single-stim", "name": "Mary", "stimulus": "<p class='center-content'>Is this a smile?</p><p class='center-content'><img src='img/Mary_Reward.jpg' height='410' width='730'></img></p>", "expr": "reward", "time_elapsed": 146358, "internal_node_id": "0.0-1.0-58.0", "key_press": 80, "trial_index": 59, "gend": "female", "condition": 2}, {"rt": 547, "trial_type": "single-stim", "name": "Lulu", "stimulus": "<p class='center-content'>Is this a smile?</p><p class='center-content'><img src='img/Lulu.jpg' height='410' width='730'></img></p>", "expr": "neutral", "time_elapsed": 146913, "internal_node_id": "0.0-1.0-59.0", "key_press": 81, "trial_index": 60, "gend": "female", "condition": 2}, {"rt": 457, "trial_type": "single-stim", "name": "Anthony", "stimulus": "<p class='center-content'>Is this a smile?</p><p class='center-content'><img src='img/Anthony.jpg' height='410' width='730'></img></p>", "expr": "neutral", "time_elapsed": 147374, "internal_node_id": "0.0-1.0-60.0", "key_press": 81, "trial_index": 61, "gend": "male", "condition": 2}, {"rt": 543, "trial_type": "single-stim", "name": "Mary", "stimulus": "<p class='center-content'>Is this a smile?</p><p class='center-content'><img src='img/Mary_Disgust.jpg' height='410' width='730'></img></p>", "expr": "disgust", "time_elapsed": 147925, "internal_node_id": "0.0-1.0-61.0", "key_press": 81, "trial_index": 62, "gend": "female", "condition": 2}, {"rt": 570, "trial_type": "single-stim", "name": "Ashley", "stimulus": "<p class='center-content'>Is this a smile?</p><p class='center-content'><img src='img/Ashley_Dominance.jpg' height='410' width='730'></img></p>", "expr": "dominance", "time_elapsed": 148503, "internal_node_id": "0.0-1.0-62.0", "key_press": 81, "trial_index": 63, "gend": "female", "condition": 2}, {"rt": 758, "trial_type": "single-stim", "name": "Jessica", "stimulus": "<p class='center-content'>Is this a smile?</p><p class='center-content'><img src='img/Jessica_Affiliation.jpg' height='410' width='730'></img></p>", "expr": "affiliation", "time_elapsed": 149267, "internal_node_id": "0.0-1.0-63.0", "key_press": 80, "trial_index": 64, "gend": "female", "condition": 2}, {"rt": 573, "trial_type": "single-stim", "name": "Ashley", "stimulus": "<p class='center-content'>Is this a smile?</p><p class='center-content'><img src='img/Ashley_Disgust.jpg' height='410' width='730'></img></p>", "expr": "disgust", "time_elapsed": 149845, "internal_node_id": "0.0-1.0-64.0", "key_press": 81, "trial_index": 65, "gend": "female", "condition": 2}, {"rt": 585, "trial_type": "single-stim", "name": "Naomi", "stimulus": "<p class='center-content'>Is this a smile?</p><p class='center-content'><img src='img/Naomi_Reward.jpg' height='410' width='730'></img></p>", "expr": "reward", "time_elapsed": 150435, "internal_node_id": "0.0-1.0-65.0", "key_press": 80, "trial_index": 66, "gend": "female", "condition": 2}, {"rt": 533, "trial_type": "single-stim", "name": "KJ", "stimulus": "<p class='center-content'>Is this a smile?</p><p class='center-content'><img src='img/KJ.jpg' height='410' width='730'></img></p>", "expr": "neutral", "time_elapsed": 150974, "internal_node_id": "0.0-1.0-66.0", "key_press": 81, "trial_index": 67, "gend": "female", "condition": 2}, {"rt": 445, "trial_type": "single-stim", "name": "Naomi", "stimulus": "<p class='center-content'>Is this a smile?</p><p class='center-content'><img src='img/Naomi_Affiliation.jpg' height='410' width='730'></img></p>", "expr": "affiliation", "time_elapsed": 151426, "internal_node_id": "0.0-1.0-67.0", "key_press": 81, "trial_index": 68, "gend": "female", "condition": 2}, {"rt": 667, "trial_type": "single-stim", "name": "Joeseph", "stimulus": "<p class='center-content'>Is this a smile?</p><p class='center-content'><img src='img/Joeseph_Disgust.jpg' height='410' width='730'></img></p>", "expr": "disgust", "time_elapsed": 152097, "internal_node_id": "0.0-1.0-68.0", "key_press": 81, "trial_index": 69, "gend": "male", "condition": 2}, {"rt": 553, "trial_type": "single-stim", "name": "KJ", "stimulus": "<p class='center-content'>Is this a smile?</p><p class='center-content'><img src='img/KJ_Affiliation.jpg' height='410' width='730'></img></p>", "expr": "affiliation", "time_elapsed": 152656, "internal_node_id": "0.0-1.0-69.0", "key_press": 81, "trial_index": 70, "gend": "female", "condition": 2}, {"rt": 512, "trial_type": "single-stim", "name": "Maurice", "stimulus": "<p class='center-content'>Is this a smile?</p><p class='center-content'><img src='img/Maurice.jpg' height='410' width='730'></img></p>", "expr": "neutral", "time_elapsed": 153174, "internal_node_id": "0.0-1.0-70.0", "key_press": 81, "trial_index": 71, "gend": "male", "condition": 2}, {"rt": 1669, "trial_type": "single-stim", "name": "Naomi", "stimulus": "<p class='center-content'>Is this a smile?</p><p class='center-content'><img src='img/Naomi_DIsgust.jpg' height='410' width='730'></img></p>", "expr": "disgust", "time_elapsed": 154847, "internal_node_id": "0.0-1.0-71.0", "key_press": 81, "trial_index": 72, "gend": "female", "condition": 2}, {"rt": 897, "trial_type": "single-stim", "name": "KJ", "stimulus": "<p class='center-content'>Is this a smile?</p><p class='center-content'><img src='img/KJ_Dominance.jpg' height='410' width='730'></img></p>", "expr": "dominance", "time_elapsed": 155748, "internal_node_id": "0.0-1.0-72.0", "key_press": 80, "trial_index": 73, "gend": "female", "condition": 2}, {"rt": 318, "trial_type": "single-stim", "name": "Maurice", "stimulus": "<p class='center-content'>Is this a smile?</p><p class='center-content'><img src='img/Maurice_Dominance.jpg' height='410' width='730'></img></p>", "expr": "dominance", "time_elapsed": 156072, "internal_node_id": "0.0-1.0-73.0", "key_press": 81, "trial_index": 74, "gend": "male", "condition": 2}, {"rt": 856, "trial_type": "single-stim", "name": "Jessica", "stimulus": "<p class='center-content'>Is this a smile?</p><p class='center-content'><img src='img/Jessica_Dominance.jpg' height='410' width='730'></img></p>", "expr": "dominance", "time_elapsed": 156935, "internal_node_id": "0.0-1.0-74.0", "key_press": 81, "trial_index": 75, "gend": "female", "condition": 2}, {"rt": 8229, "trial_type": "survey-multi-choice", "responses": "{\"Q0\":\"Female\",\"Q1\":\"Black/African American\",\"Q2\":\"Right\"}", "time_elapsed": 165216, "internal_node_id": "0.0-2.0", "trial_index": 76}, {"rt": 13048, "trial_type": "survey-text", "responses": "{\"Q0\":\"No\"}", "time_elapsed": 179277, "internal_node_id": "0.0-3.0", "trial_index": 77}, {"rt": 30886, "trial_type": "text", "time_elapsed": 211178, "internal_node_id": "0.0-4.0", "key_press": 13, "trial_index": 78}]}, "AcceptTime": "2017-12-05T22:10:30Z", "HITId": "3KI0JD2ZU1IG06NHG8G4GHU1G4D76H", "Assignment": "", "AssignmentStatus": "Approved", "SubmitTime": "2017-12-05T22:19:12Z"}