{"ApprovalTime": "2017-12-05T22:17:18Z", "AutoApprovalTime": "2017-12-05T22:17:01Z", "AssignmentId": "3QL2OFSM96IX6SMYW9FXNY4QHVACNA", "WorkerId": "anon39", "answers": {"data": [{"rt": 15682, "trial_type": "text", "time_elapsed": 15684, "internal_node_id": "0.0-0.0", "key_press": 81, "trial_index": 0}, {"rt": 1127, "trial_type": "single-stim", "name": "Lulu", "stimulus": "<p class='center-content'>Is this a smile?</p><p class='center-content'><img src='img/Lulu_Affiliation.jpg' height='410' width='730'></img></p>", "expr": "affiliation", "time_elapsed": 18822, "internal_node_id": "0.0-1.0-0.0", "key_press": 81, "trial_index": 1, "gend": "female", "condition": 1}, {"rt": 661, "trial_type": "single-stim", "name": "Mary", "stimulus": "<p class='center-content'>Is this a smile?</p><p class='center-content'><img src='img/Mary_Reward.jpg' height='410' width='730'></img></p>", "expr": "reward", "time_elapsed": 19483, "internal_node_id": "0.0-1.0-1.0", "key_press": 81, "trial_index": 2, "gend": "female", "condition": 1}, {"rt": 626, "trial_type": "single-stim", "name": "Andrew", "stimulus": "<p class='center-content'>Is this a smile?</p><p class='center-content'><img src='img/Andrew_Dominance.jpg' height='410' width='730'></img></p>", "expr": "dominance", "time_elapsed": 20119, "internal_node_id": "0.0-1.0-2.0", "key_press": 81, "trial_index": 3, "gend": "male", "condition": 1}, {"rt": 879, "trial_type": "single-stim", "name": "Dmonte", "stimulus": "<p class='center-content'>Is this a smile?</p><p class='center-content'><img src='img/Dmonte_Affiliation.jpg' height='410' width='730'></img></p>", "expr": "affiliation", "time_elapsed": 20998, "internal_node_id": "0.0-1.0-3.0", "key_press": 81, "trial_index": 4, "gend": "male", "condition": 1}, {"rt": 647, "trial_type": "single-stim", "name": "Dmonte", "stimulus": "<p class='center-content'>Is this a smile?</p><p class='center-content'><img src='img/Dmonte_Disgust.jpg' height='410' width='730'></img></p>", "expr": "disgust", "time_elapsed": 21645, "internal_node_id": "0.0-1.0-4.0", "key_press": 80, "trial_index": 5, "gend": "male", "condition": 1}, {"rt": 1043, "trial_type": "single-stim", "name": "Dmonte", "stimulus": "<p class='center-content'>Is this a smile?</p><p class='center-content'><img src='img/Dmonte_Reward.jpg' height='410' width='730'></img></p>", "expr": "reward", "time_elapsed": 22689, "internal_node_id": "0.0-1.0-5.0", "key_press": 81, "trial_index": 6, "gend": "male", "condition": 1}, {"rt": 1399, "trial_type": "single-stim", "name": "Maurice", "stimulus": "<p class='center-content'>Is this a smile?</p><p class='center-content'><img src='img/Maurice.jpg' height='410' width='730'></img></p>", "expr": "neutral", "time_elapsed": 24089, "internal_node_id": "0.0-1.0-6.0", "key_press": 80, "trial_index": 7, "gend": "male", "condition": 1}, {"rt": 733, "trial_type": "single-stim", "name": "Lulu", "stimulus": "<p class='center-content'>Is this a smile?</p><p class='center-content'><img src='img/Lulu_Dominance.jpg' height='410' width='730'></img></p>", "expr": "dominance", "time_elapsed": 24832, "internal_node_id": "0.0-1.0-7.0", "key_press": 81, "trial_index": 8, "gend": "female", "condition": 1}, {"rt": 767, "trial_type": "single-stim", "name": "Naomi", "stimulus": "<p class='center-content'>Is this a smile?</p><p class='center-content'><img src='img/Naomi.jpg' height='410' width='730'></img></p>", "expr": "neutral", "time_elapsed": 25609, "internal_node_id": "0.0-1.0-8.0", "key_press": 81, "trial_index": 9, "gend": "female", "condition": 1}, {"rt": 768, "trial_type": "single-stim", "name": "Lulu", "stimulus": "<p class='center-content'>Is this a smile?</p><p class='center-content'><img src='img/Lulu.jpg' height='410' width='730'></img></p>", "expr": "neutral", "time_elapsed": 26387, "internal_node_id": "0.0-1.0-9.0", "key_press": 80, "trial_index": 10, "gend": "female", "condition": 1}, {"rt": 750, "trial_type": "single-stim", "name": "Jourdan", "stimulus": "<p class='center-content'>Is this a smile?</p><p class='center-content'><img src='img/Jourdan.jpg' height='410' width='730'></img></p>", "expr": "neutral", "time_elapsed": 27147, "internal_node_id": "0.0-1.0-10.0", "key_press": 80, "trial_index": 11, "gend": "male", "condition": 1}, {"rt": 695, "trial_type": "single-stim", "name": "Mary", "stimulus": "<p class='center-content'>Is this a smile?</p><p class='center-content'><img src='img/Mary_Dominance.jpg' height='410' width='730'></img></p>", "expr": "dominance", "time_elapsed": 27842, "internal_node_id": "0.0-1.0-11.0", "key_press": 81, "trial_index": 12, "gend": "female", "condition": 1}, {"rt": 688, "trial_type": "single-stim", "name": "Jourdan", "stimulus": "<p class='center-content'>Is this a smile?</p><p class='center-content'><img src='img/Jourdan_Reward.jpg' height='410' width='730'></img></p>", "expr": "reward", "time_elapsed": 28540, "internal_node_id": "0.0-1.0-12.0", "key_press": 81, "trial_index": 13, "gend": "male", "condition": 1}, {"rt": 740, "trial_type": "single-stim", "name": "Maurice", "stimulus": "<p class='center-content'>Is this a smile?</p><p class='center-content'><img src='img/Maurice_Dominance.jpg' height='410' width='730'></img></p>", "expr": "dominance", "time_elapsed": 29282, "internal_node_id": "0.0-1.0-13.0", "key_press": 81, "trial_index": 14, "gend": "male", "condition": 1}, {"rt": 1580, "trial_type": "single-stim", "name": "Andrew", "stimulus": "<p class='center-content'>Is this a smile?</p><p class='center-content'><img src='img/Andrew_Reward.jpg' height='410' width='730'></img></p>", "expr": "reward", "time_elapsed": 30872, "internal_node_id": "0.0-1.0-14.0", "key_press": 81, "trial_index": 15, "gend": "male", "condition": 1}, {"rt": 976, "trial_type": "single-stim", "name": "Marcus", "stimulus": "<p class='center-content'>Is this a smile?</p><p class='center-content'><img src='img/Marcus_Dominance.jpg' height='410' width='730'></img></p>", "expr": "dominance", "time_elapsed": 31848, "internal_node_id": "0.0-1.0-15.0", "key_press": 81, "trial_index": 16, "gend": "male", "condition": 1}, {"rt": 794, "trial_type": "single-stim", "name": "Ashley", "stimulus": "<p class='center-content'>Is this a smile?</p><p class='center-content'><img src='img/Ashley_Affiliation.jpg' height='410' width='730'></img></p>", "expr": "affiliation", "time_elapsed": 32652, "internal_node_id": "0.0-1.0-16.0", "key_press": 81, "trial_index": 17, "gend": "female", "condition": 1}, {"rt": 859, "trial_type": "single-stim", "name": "KJ", "stimulus": "<p class='center-content'>Is this a smile?</p><p class='center-content'><img src='img/KJ_Reward.jpg' height='410' width='730'></img></p>", "expr": "reward", "time_elapsed": 33512, "internal_node_id": "0.0-1.0-17.0", "key_press": 81, "trial_index": 18, "gend": "female", "condition": 1}, {"rt": 1667, "trial_type": "single-stim", "name": "Anthony", "stimulus": "<p class='center-content'>Is this a smile?</p><p class='center-content'><img src='img/Anthony_Dominance.jpg' height='410' width='730'></img></p>", "expr": "dominance", "time_elapsed": 35183, "internal_node_id": "0.0-1.0-18.0", "key_press": 80, "trial_index": 19, "gend": "male", "condition": 1}, {"rt": 652, "trial_type": "single-stim", "name": "Andrew", "stimulus": "<p class='center-content'>Is this a smile?</p><p class='center-content'><img src='img/Andrew_Affiliation.jpg' height='410' width='730'></img></p>", "expr": "affiliation", "time_elapsed": 35835, "internal_node_id": "0.0-1.0-19.0", "key_press": 81, "trial_index": 20, "gend": "male", "condition": 1}, {"rt": 597, "trial_type": "single-stim", "name": "Mary", "stimulus": "<p class='center-content'>Is this a smile?</p><p class='center-content'><img src='img/Mary_Affiliation.jpg' height='410' width='730'></img></p>", "expr": "affiliation", "time_elapsed": 36432, "internal_node_id": "0.0-1.0-20.0", "key_press": 81, "trial_index": 21, "gend": "female", "condition": 1}, {"rt": 1822, "trial_type": "single-stim", "name": "Anthony", "stimulus": "<p class='center-content'>Is this a smile?</p><p class='center-content'><img src='img/Anthony.jpg' height='410' width='730'></img></p>", "expr": "neutral", "time_elapsed": 38254, "internal_node_id": "0.0-1.0-21.0", "key_press": 80, "trial_index": 22, "gend": "male", "condition": 1}, {"rt": 1245, "trial_type": "single-stim", "name": "Joeseph", "stimulus": "<p class='center-content'>Is this a smile?</p><p class='center-content'><img src='img/Joeseph.jpg' height='410' width='730'></img></p>", "expr": "neutral", "time_elapsed": 39499, "internal_node_id": "0.0-1.0-22.0", "key_press": 80, "trial_index": 23, "gend": "male", "condition": 1}, {"rt": 1893, "trial_type": "single-stim", "name": "Ashley", "stimulus": "<p class='center-content'>Is this a smile?</p><p class='center-content'><img src='img/Ashley.jpg' height='410' width='730'></img></p>", "expr": "neutral", "time_elapsed": 41392, "internal_node_id": "0.0-1.0-23.0", "key_press": 80, "trial_index": 24, "gend": "female", "condition": 1}, {"rt": 588, "trial_type": "single-stim", "name": "Marcus", "stimulus": "<p class='center-content'>Is this a smile?</p><p class='center-content'><img src='img/Marcus_Disgust.jpg' height='410' width='730'></img></p>", "expr": "disgust", "time_elapsed": 42005, "internal_node_id": "0.0-1.0-24.0", "key_press": 81, "trial_index": 25, "gend": "male", "condition": 1}, {"rt": 957, "trial_type": "single-stim", "name": "Dmonte", "stimulus": "<p class='center-content'>Is this a smile?</p><p class='center-content'><img src='img/Dmonte.jpg' height='410' width='730'></img></p>", "expr": "neutral", "time_elapsed": 42962, "internal_node_id": "0.0-1.0-25.0", "key_press": 80, "trial_index": 26, "gend": "male", "condition": 1}, {"rt": 934, "trial_type": "single-stim", "name": "Zach", "stimulus": "<p class='center-content'>Is this a smile?</p><p class='center-content'><img src='img/Zach_Dominance.jpg' height='410' width='730'></img></p>", "expr": "dominance", "time_elapsed": 43896, "internal_node_id": "0.0-1.0-26.0", "key_press": 80, "trial_index": 27, "gend": "male", "condition": 1}, {"rt": 1958, "trial_type": "single-stim", "name": "Andrew", "stimulus": "<p class='center-content'>Is this a smile?</p><p class='center-content'><img src='img/Andrew.jpg' height='410' width='730'></img></p>", "expr": "neutral", "time_elapsed": 45864, "internal_node_id": "0.0-1.0-27.0", "key_press": 80, "trial_index": 28, "gend": "male", "condition": 1}, {"rt": 753, "trial_type": "single-stim", "name": "Andrew", "stimulus": "<p class='center-content'>Is this a smile?</p><p class='center-content'><img src='img/Andrew_Disgust.jpg' height='410' width='730'></img></p>", "expr": "disgust", "time_elapsed": 46617, "internal_node_id": "0.0-1.0-28.0", "key_press": 81, "trial_index": 29, "gend": "male", "condition": 1}, {"rt": 964, "trial_type": "single-stim", "name": "Ashley", "stimulus": "<p class='center-content'>Is this a smile?</p><p class='center-content'><img src='img/Ashley_Disgust.jpg' height='410' width='730'></img></p>", "expr": "disgust", "time_elapsed": 47591, "internal_node_id": "0.0-1.0-29.0", "key_press": 80, "trial_index": 30, "gend": "female", "condition": 1}, {"rt": 1656, "trial_type": "single-stim", "name": "Jourdan", "stimulus": "<p class='center-content'>Is this a smile?</p><p class='center-content'><img src='img/Jourdan_Affiliation.jpg' height='410' width='730'></img></p>", "expr": "affiliation", "time_elapsed": 49257, "internal_node_id": "0.0-1.0-30.0", "key_press": 80, "trial_index": 31, "gend": "male", "condition": 1}, {"rt": 982, "trial_type": "single-stim", "name": "Anna", "stimulus": "<p class='center-content'>Is this a smile?</p><p class='center-content'><img src='img/Anna_Dominance.jpg' height='410' width='730'></img></p>", "expr": "dominance", "time_elapsed": 50239, "internal_node_id": "0.0-1.0-31.0", "key_press": 81, "trial_index": 32, "gend": "female", "condition": 1}, {"rt": 577, "trial_type": "single-stim", "name": "Anthony", "stimulus": "<p class='center-content'>Is this a smile?</p><p class='center-content'><img src='img/Anthony_Reward.jpg' height='410' width='730'></img></p>", "expr": "reward", "time_elapsed": 50826, "internal_node_id": "0.0-1.0-32.0", "key_press": 81, "trial_index": 33, "gend": "male", "condition": 1}, {"rt": 669, "trial_type": "single-stim", "name": "Anna", "stimulus": "<p class='center-content'>Is this a smile?</p><p class='center-content'><img src='img/Anna.jpg' height='410' width='730'></img></p>", "expr": "neutral", "time_elapsed": 51506, "internal_node_id": "0.0-1.0-33.0", "key_press": 81, "trial_index": 34, "gend": "female", "condition": 1}, {"rt": 1226, "trial_type": "single-stim", "name": "Naomi", "stimulus": "<p class='center-content'>Is this a smile?</p><p class='center-content'><img src='img/Naomi_Dominance.jpg' height='410' width='730'></img></p>", "expr": "dominance", "time_elapsed": 52742, "internal_node_id": "0.0-1.0-34.0", "key_press": 81, "trial_index": 35, "gend": "female", "condition": 1}, {"rt": 888, "trial_type": "single-stim", "name": "Maurice", "stimulus": "<p class='center-content'>Is this a smile?</p><p class='center-content'><img src='img/Maurice_Reward.jpg' height='410' width='730'></img></p>", "expr": "reward", "time_elapsed": 53630, "internal_node_id": "0.0-1.0-35.0", "key_press": 81, "trial_index": 36, "gend": "male", "condition": 1}, {"rt": 894, "trial_type": "single-stim", "name": "Jessica", "stimulus": "<p class='center-content'>Is this a smile?</p><p class='center-content'><img src='img/Jessica.jpg' height='410' width='730'></img></p>", "expr": "neutral", "time_elapsed": 54524, "internal_node_id": "0.0-1.0-36.0", "key_press": 80, "trial_index": 37, "gend": "female", "condition": 1}, {"rt": 1380, "trial_type": "single-stim", "name": "Ashley", "stimulus": "<p class='center-content'>Is this a smile?</p><p class='center-content'><img src='img/Ashley_Dominance.jpg' height='410' width='730'></img></p>", "expr": "dominance", "time_elapsed": 55904, "internal_node_id": "0.0-1.0-37.0", "key_press": 81, "trial_index": 38, "gend": "female", "condition": 1}, {"rt": 1033, "trial_type": "single-stim", "name": "Anna", "stimulus": "<p class='center-content'>Is this a smile?</p><p class='center-content'><img src='img/Anna_Disgust.jpg' height='410' width='730'></img></p>", "expr": "disgust", "time_elapsed": 56937, "internal_node_id": "0.0-1.0-38.0", "key_press": 81, "trial_index": 39, "gend": "female", "condition": 1}, {"rt": 1399, "trial_type": "single-stim", "name": "Jourdan", "stimulus": "<p class='center-content'>Is this a smile?</p><p class='center-content'><img src='img/Jourdan_Disgust.jpg' height='410' width='730'></img></p>", "expr": "disgust", "time_elapsed": 58347, "internal_node_id": "0.0-1.0-39.0", "key_press": 80, "trial_index": 40, "gend": "male", "condition": 1}, {"rt": 1239, "trial_type": "single-stim", "name": "Marcus", "stimulus": "<p class='center-content'>Is this a smile?</p><p class='center-content'><img src='img/Marcus_Affiliation.jpg' height='410' width='730'></img></p>", "expr": "affiliation", "time_elapsed": 59586, "internal_node_id": "0.0-1.0-40.0", "key_press": 81, "trial_index": 41, "gend": "male", "condition": 1}, {"rt": 860, "trial_type": "single-stim", "name": "Maurice", "stimulus": "<p class='center-content'>Is this a smile?</p><p class='center-content'><img src='img/Maurice_Affiliation.jpg' height='410' width='730'></img></p>", "expr": "affiliation", "time_elapsed": 60456, "internal_node_id": "0.0-1.0-41.0", "key_press": 81, "trial_index": 42, "gend": "male", "condition": 1}, {"rt": 1177, "trial_type": "single-stim", "name": "Lulu", "stimulus": "<p class='center-content'>Is this a smile?</p><p class='center-content'><img src='img/Lulu_Disgust.jpg' height='410' width='730'></img></p>", "expr": "disgust", "time_elapsed": 61643, "internal_node_id": "0.0-1.0-42.0", "key_press": 80, "trial_index": 43, "gend": "female", "condition": 1}, {"rt": 1874, "trial_type": "single-stim", "name": "Marcus", "stimulus": "<p class='center-content'>Is this a smile?</p><p class='center-content'><img src='img/Marcus.jpg' height='410' width='730'></img></p>", "expr": "neutral", "time_elapsed": 63527, "internal_node_id": "0.0-1.0-43.0", "key_press": 81, "trial_index": 44, "gend": "male", "condition": 1}, {"rt": 686, "trial_type": "single-stim", "name": "KJ", "stimulus": "<p class='center-content'>Is this a smile?</p><p class='center-content'><img src='img/KJ_Affiliation.jpg' height='410' width='730'></img></p>", "expr": "affiliation", "time_elapsed": 64223, "internal_node_id": "0.0-1.0-44.0", "key_press": 81, "trial_index": 45, "gend": "female", "condition": 1}, {"rt": 769, "trial_type": "single-stim", "name": "Jessica", "stimulus": "<p class='center-content'>Is this a smile?</p><p class='center-content'><img src='img/Jessica_Disgust.jpg' height='410' width='730'></img></p>", "expr": "disgust", "time_elapsed": 64992, "internal_node_id": "0.0-1.0-45.0", "key_press": 80, "trial_index": 46, "gend": "female", "condition": 1}, {"rt": 980, "trial_type": "single-stim", "name": "Dmonte", "stimulus": "<p class='center-content'>Is this a smile?</p><p class='center-content'><img src='img/Dmonte_Dominance.jpg' height='410' width='730'></img></p>", "expr": "dominance", "time_elapsed": 65982, "internal_node_id": "0.0-1.0-46.0", "key_press": 81, "trial_index": 47, "gend": "male", "condition": 1}, {"rt": 880, "trial_type": "single-stim", "name": "Zach", "stimulus": "<p class='center-content'>Is this a smile?</p><p class='center-content'><img src='img/Zach_Affiliation.jpg' height='410' width='730'></img></p>", "expr": "affiliation", "time_elapsed": 66862, "internal_node_id": "0.0-1.0-47.0", "key_press": 81, "trial_index": 48, "gend": "male", "condition": 1}, {"rt": 895, "trial_type": "single-stim", "name": "Anthony", "stimulus": "<p class='center-content'>Is this a smile?</p><p class='center-content'><img src='img/Anthony_Disgust.jpg' height='410' width='730'></img></p>", "expr": "disgust", "time_elapsed": 67757, "internal_node_id": "0.0-1.0-48.0", "key_press": 80, "trial_index": 49, "gend": "male", "condition": 1}, {"rt": 848, "trial_type": "single-stim", "name": "Zach", "stimulus": "<p class='center-content'>Is this a smile?</p><p class='center-content'><img src='img/Zach_Reward.jpg' height='410' width='730'></img></p>", "expr": "reward", "time_elapsed": 68605, "internal_node_id": "0.0-1.0-49.0", "key_press": 81, "trial_index": 50, "gend": "male", "condition": 1}, {"rt": 1123, "trial_type": "single-stim", "name": "Maurice", "stimulus": "<p class='center-content'>Is this a smile?</p><p class='center-content'><img src='img/Maurice_Disgust.jpg' height='410' width='730'></img></p>", "expr": "disgust", "time_elapsed": 69728, "internal_node_id": "0.0-1.0-50.0", "key_press": 80, "trial_index": 51, "gend": "male", "condition": 1}, {"rt": 857, "trial_type": "single-stim", "name": "Naomi", "stimulus": "<p class='center-content'>Is this a smile?</p><p class='center-content'><img src='img/Naomi_Affiliation.jpg' height='410' width='730'></img></p>", "expr": "affiliation", "time_elapsed": 70595, "internal_node_id": "0.0-1.0-51.0", "key_press": 81, "trial_index": 52, "gend": "female", "condition": 1}, {"rt": 591, "trial_type": "single-stim", "name": "KJ", "stimulus": "<p class='center-content'>Is this a smile?</p><p class='center-content'><img src='img/KJ_Dominance.jpg' height='410' width='730'></img></p>", "expr": "dominance", "time_elapsed": 71196, "internal_node_id": "0.0-1.0-52.0", "key_press": 81, "trial_index": 53, "gend": "female", "condition": 1}, {"rt": 773, "trial_type": "single-stim", "name": "Naomi", "stimulus": "<p class='center-content'>Is this a smile?</p><p class='center-content'><img src='img/Naomi_Reward.jpg' height='410' width='730'></img></p>", "expr": "reward", "time_elapsed": 71969, "internal_node_id": "0.0-1.0-53.0", "key_press": 81, "trial_index": 54, "gend": "female", "condition": 1}, {"rt": 843, "trial_type": "single-stim", "name": "Joeseph", "stimulus": "<p class='center-content'>Is this a smile?</p><p class='center-content'><img src='img/Joeseph_Disgust.jpg' height='410' width='730'></img></p>", "expr": "disgust", "time_elapsed": 72822, "internal_node_id": "0.0-1.0-54.0", "key_press": 80, "trial_index": 55, "gend": "male", "condition": 1}, {"rt": 707, "trial_type": "single-stim", "name": "Lulu", "stimulus": "<p class='center-content'>Is this a smile?</p><p class='center-content'><img src='img/Lulu_Reward.jpg' height='410' width='730'></img></p>", "expr": "reward", "time_elapsed": 73529, "internal_node_id": "0.0-1.0-55.0", "key_press": 81, "trial_index": 56, "gend": "female", "condition": 1}, {"rt": 649, "trial_type": "single-stim", "name": "Marcus", "stimulus": "<p class='center-content'>Is this a smile?</p><p class='center-content'><img src='img/Marcus_Reward.jpg' height='410' width='730'></img></p>", "expr": "reward", "time_elapsed": 74178, "internal_node_id": "0.0-1.0-56.0", "key_press": 81, "trial_index": 57, "gend": "male", "condition": 1}, {"rt": 960, "trial_type": "single-stim", "name": "KJ", "stimulus": "<p class='center-content'>Is this a smile?</p><p class='center-content'><img src='img/KJ_Disgust.jpg' height='410' width='730'></img></p>", "expr": "disgust", "time_elapsed": 75148, "internal_node_id": "0.0-1.0-57.0", "key_press": 80, "trial_index": 58, "gend": "female", "condition": 1}, {"rt": 1592, "trial_type": "single-stim", "name": "Naomi", "stimulus": "<p class='center-content'>Is this a smile?</p><p class='center-content'><img src='img/Naomi_DIsgust.jpg' height='410' width='730'></img></p>", "expr": "disgust", "time_elapsed": 76740, "internal_node_id": "0.0-1.0-58.0", "key_press": 80, "trial_index": 59, "gend": "female", "condition": 1}, {"rt": 1390, "trial_type": "single-stim", "name": "Jessica", "stimulus": "<p class='center-content'>Is this a smile?</p><p class='center-content'><img src='img/Jessica_Reward.jpg' height='410' width='730'></img></p>", "expr": "reward", "time_elapsed": 78140, "internal_node_id": "0.0-1.0-59.0", "key_press": 81, "trial_index": 60, "gend": "female", "condition": 1}, {"rt": 1187, "trial_type": "single-stim", "name": "Jourdan", "stimulus": "<p class='center-content'>Is this a smile?</p><p class='center-content'><img src='img/Jourdan_Dominance.jpg' height='410' width='730'></img></p>", "expr": "dominance", "time_elapsed": 79337, "internal_node_id": "0.0-1.0-60.0", "key_press": 81, "trial_index": 61, "gend": "male", "condition": 1}, {"rt": 1195, "trial_type": "single-stim", "name": "Mary", "stimulus": "<p class='center-content'>Is this a smile?</p><p class='center-content'><img src='img/Mary.jpg' height='410' width='730'></img></p>", "expr": "neutral", "time_elapsed": 80542, "internal_node_id": "0.0-1.0-61.0", "key_press": 80, "trial_index": 62, "gend": "female", "condition": 1}, {"rt": 712, "trial_type": "single-stim", "name": "Anna", "stimulus": "<p class='center-content'>Is this a smile?</p><p class='center-content'><img src='img/Anna_Affiliation.jpg' height='410' width='730'></img></p>", "expr": "affiliation", "time_elapsed": 81264, "internal_node_id": "0.0-1.0-62.0", "key_press": 81, "trial_index": 63, "gend": "female", "condition": 1}, {"rt": 992, "trial_type": "single-stim", "name": "Joeseph", "stimulus": "<p class='center-content'>Is this a smile?</p><p class='center-content'><img src='img/Joeseph_Dominance.jpg' height='410' width='730'></img></p>", "expr": "dominance", "time_elapsed": 82256, "internal_node_id": "0.0-1.0-63.0", "key_press": 81, "trial_index": 64, "gend": "male", "condition": 1}, {"rt": 1515, "trial_type": "single-stim", "name": "KJ", "stimulus": "<p class='center-content'>Is this a smile?</p><p class='center-content'><img src='img/KJ.jpg' height='410' width='730'></img></p>", "expr": "neutral", "time_elapsed": 83771, "internal_node_id": "0.0-1.0-64.0", "key_press": 81, "trial_index": 65, "gend": "female", "condition": 1}, {"rt": 656, "trial_type": "single-stim", "name": "Jessica", "stimulus": "<p class='center-content'>Is this a smile?</p><p class='center-content'><img src='img/Jessica_Affiliation.jpg' height='410' width='730'></img></p>", "expr": "affiliation", "time_elapsed": 84428, "internal_node_id": "0.0-1.0-65.0", "key_press": 81, "trial_index": 66, "gend": "female", "condition": 1}, {"rt": 1212, "trial_type": "single-stim", "name": "Joeseph", "stimulus": "<p class='center-content'>Is this a smile?</p><p class='center-content'><img src='img/Joeseph_Reward.jpg' height='410' width='730'></img></p>", "expr": "reward", "time_elapsed": 85642, "internal_node_id": "0.0-1.0-66.0", "key_press": 81, "trial_index": 67, "gend": "male", "condition": 1}, {"rt": 2328, "trial_type": "single-stim", "name": "Anna", "stimulus": "<p class='center-content'>Is this a smile?</p><p class='center-content'><img src='img/Anna_Reward.jpg' height='410' width='730'></img></p>", "expr": "reward", "time_elapsed": 87970, "internal_node_id": "0.0-1.0-67.0", "key_press": 81, "trial_index": 68, "gend": "female", "condition": 1}, {"rt": 1339, "trial_type": "single-stim", "name": "Ashley", "stimulus": "<p class='center-content'>Is this a smile?</p><p class='center-content'><img src='img/Ashley_Reward.jpg' height='410' width='730'></img></p>", "expr": "reward", "time_elapsed": 89309, "internal_node_id": "0.0-1.0-68.0", "key_press": 81, "trial_index": 69, "gend": "female", "condition": 1}, {"rt": 929, "trial_type": "single-stim", "name": "Zach", "stimulus": "<p class='center-content'>Is this a smile?</p><p class='center-content'><img src='img/Zach_Disgust.jpg' height='410' width='730'></img></p>", "expr": "disgust", "time_elapsed": 90248, "internal_node_id": "0.0-1.0-69.0", "key_press": 80, "trial_index": 70, "gend": "male", "condition": 1}, {"rt": 1834, "trial_type": "single-stim", "name": "Anthony", "stimulus": "<p class='center-content'>Is this a smile?</p><p class='center-content'><img src='img/Anthony_Affiliation.jpg' height='410' width='730'></img></p>", "expr": "affiliation", "time_elapsed": 92082, "internal_node_id": "0.0-1.0-70.0", "key_press": 80, "trial_index": 71, "gend": "male", "condition": 1}, {"rt": 961, "trial_type": "single-stim", "name": "Joeseph", "stimulus": "<p class='center-content'>Is this a smile?</p><p class='center-content'><img src='img/Joeseph_Affiliation.jpg' height='410' width='730'></img></p>", "expr": "affiliation", "time_elapsed": 93043, "internal_node_id": "0.0-1.0-71.0", "key_press": 80, "trial_index": 72, "gend": "male", "condition": 1}, {"rt": 1578, "trial_type": "single-stim", "name": "Zach", "stimulus": "<p class='center-content'>Is this a smile?</p><p class='center-content'><img src='img/Zach.jpg' height='410' width='730'></img></p>", "expr": "neutral", "time_elapsed": 94631, "internal_node_id": "0.0-1.0-72.0", "key_press": 80, "trial_index": 73, "gend": "male", "condition": 1}, {"rt": 1000, "trial_type": "single-stim", "name": "Mary", "stimulus": "<p class='center-content'>Is this a smile?</p><p class='center-content'><img src='img/Mary_Disgust.jpg' height='410' width='730'></img></p>", "expr": "disgust", "time_elapsed": 95631, "internal_node_id": "0.0-1.0-73.0", "key_press": 80, "trial_index": 74, "gend": "female", "condition": 1}, {"rt": 940, "trial_type": "single-stim", "name": "Jessica", "stimulus": "<p class='center-content'>Is this a smile?</p><p class='center-content'><img src='img/Jessica_Dominance.jpg' height='410' width='730'></img></p>", "expr": "dominance", "time_elapsed": 96571, "internal_node_id": "0.0-1.0-74.0", "key_press": 80, "trial_index": 75, "gend": "female", "condition": 1}, {"rt": 10110, "trial_type": "survey-multi-choice", "responses": "{\"Q0\":\"Male\",\"Q1\":\"White/Caucasian/European American\",\"Q2\":\"Right\"}", "time_elapsed": 106696, "internal_node_id": "0.0-2.0", "trial_index": 76}, {"rt": 7190, "trial_type": "survey-text", "responses": "{\"Q0\":\"no issues\"}", "time_elapsed": 114889, "internal_node_id": "0.0-3.0", "trial_index": 77}, {"rt": 2065, "trial_type": "text", "time_elapsed": 117962, "internal_node_id": "0.0-4.0", "key_press": 68, "trial_index": 78}]}, "AcceptTime": "2017-12-05T22:08:57Z", "HITId": "3KI0JD2ZU1IG06NHG8G4GHU1G4D76H", "Assignment": "", "AssignmentStatus": "Approved", "SubmitTime": "2017-12-05T22:12:01Z"}