{"ApprovalTime": "2017-12-05T22:32:18Z", "AutoApprovalTime": "2017-12-05T22:31:54Z", "AssignmentId": "317HQ483I7SOJV8YOJBJY12LU13INT", "WorkerId": "anon1", "answers": {"data": [{"rt": 100779, "trial_type": "text", "time_elapsed": 100780, "internal_node_id": "0.0-0.0", "key_press": 75, "trial_index": 0}, {"rt": 1719, "trial_type": "single-stim", "name": "Maurice", "stimulus": "<p class='center-content'>Is this a smile?</p><p class='center-content'><img src='img/Maurice_Dominance.jpg' height='410' width='730'></img></p>", "expr": "dominance", "time_elapsed": 104502, "internal_node_id": "0.0-1.0-0.0", "key_press": 80, "trial_index": 1, "gend": "male", "condition": 2}, {"rt": 770, "trial_type": "single-stim", "name": "Lulu", "stimulus": "<p class='center-content'>Is this a smile?</p><p class='center-content'><img src='img/Lulu.jpg' height='410' width='730'></img></p>", "expr": "neutral", "time_elapsed": 105273, "internal_node_id": "0.0-1.0-1.0", "key_press": 81, "trial_index": 2, "gend": "female", "condition": 2}, {"rt": 741, "trial_type": "single-stim", "name": "Dmonte", "stimulus": "<p class='center-content'>Is this a smile?</p><p class='center-content'><img src='img/Dmonte_Disgust.jpg' height='410' width='730'></img></p>", "expr": "disgust", "time_elapsed": 106016, "internal_node_id": "0.0-1.0-2.0", "key_press": 81, "trial_index": 3, "gend": "male", "condition": 2}, {"rt": 665, "trial_type": "single-stim", "name": "Anthony", "stimulus": "<p class='center-content'>Is this a smile?</p><p class='center-content'><img src='img/Anthony_Reward.jpg' height='410' width='730'></img></p>", "expr": "reward", "time_elapsed": 106684, "internal_node_id": "0.0-1.0-3.0", "key_press": 80, "trial_index": 4, "gend": "male", "condition": 2}, {"rt": 1029, "trial_type": "single-stim", "name": "Lulu", "stimulus": "<p class='center-content'>Is this a smile?</p><p class='center-content'><img src='img/Lulu_Affiliation.jpg' height='410' width='730'></img></p>", "expr": "affiliation", "time_elapsed": 107714, "internal_node_id": "0.0-1.0-4.0", "key_press": 80, "trial_index": 5, "gend": "female", "condition": 2}, {"rt": 616, "trial_type": "single-stim", "name": "Ashley", "stimulus": "<p class='center-content'>Is this a smile?</p><p class='center-content'><img src='img/Ashley_Affiliation.jpg' height='410' width='730'></img></p>", "expr": "affiliation", "time_elapsed": 108332, "internal_node_id": "0.0-1.0-5.0", "key_press": 80, "trial_index": 6, "gend": "female", "condition": 2}, {"rt": 635, "trial_type": "single-stim", "name": "Anna", "stimulus": "<p class='center-content'>Is this a smile?</p><p class='center-content'><img src='img/Anna_Reward.jpg' height='410' width='730'></img></p>", "expr": "reward", "time_elapsed": 108969, "internal_node_id": "0.0-1.0-6.0", "key_press": 80, "trial_index": 7, "gend": "female", "condition": 2}, {"rt": 610, "trial_type": "single-stim", "name": "Maurice", "stimulus": "<p class='center-content'>Is this a smile?</p><p class='center-content'><img src='img/Maurice_Reward.jpg' height='410' width='730'></img></p>", "expr": "reward", "time_elapsed": 109580, "internal_node_id": "0.0-1.0-7.0", "key_press": 80, "trial_index": 8, "gend": "male", "condition": 2}, {"rt": 2194, "trial_type": "single-stim", "name": "Anna", "stimulus": "<p class='center-content'>Is this a smile?</p><p class='center-content'><img src='img/Anna.jpg' height='410' width='730'></img></p>", "expr": "neutral", "time_elapsed": 111777, "internal_node_id": "0.0-1.0-8.0", "key_press": 80, "trial_index": 9, "gend": "female", "condition": 2}, {"rt": 647, "trial_type": "single-stim", "name": "Maurice", "stimulus": "<p class='center-content'>Is this a smile?</p><p class='center-content'><img src='img/Maurice_Disgust.jpg' height='410' width='730'></img></p>", "expr": "disgust", "time_elapsed": 112425, "internal_node_id": "0.0-1.0-9.0", "key_press": 81, "trial_index": 10, "gend": "male", "condition": 2}, {"rt": 659, "trial_type": "single-stim", "name": "KJ", "stimulus": "<p class='center-content'>Is this a smile?</p><p class='center-content'><img src='img/KJ_Reward.jpg' height='410' width='730'></img></p>", "expr": "reward", "time_elapsed": 113087, "internal_node_id": "0.0-1.0-10.0", "key_press": 80, "trial_index": 11, "gend": "female", "condition": 2}, {"rt": 839, "trial_type": "single-stim", "name": "Jessica", "stimulus": "<p class='center-content'>Is this a smile?</p><p class='center-content'><img src='img/Jessica_Reward.jpg' height='410' width='730'></img></p>", "expr": "reward", "time_elapsed": 113927, "internal_node_id": "0.0-1.0-11.0", "key_press": 80, "trial_index": 12, "gend": "female", "condition": 2}, {"rt": 1234, "trial_type": "single-stim", "name": "Mary", "stimulus": "<p class='center-content'>Is this a smile?</p><p class='center-content'><img src='img/Mary_Disgust.jpg' height='410' width='730'></img></p>", "expr": "disgust", "time_elapsed": 115164, "internal_node_id": "0.0-1.0-12.0", "key_press": 81, "trial_index": 13, "gend": "female", "condition": 2}, {"rt": 976, "trial_type": "single-stim", "name": "Jessica", "stimulus": "<p class='center-content'>Is this a smile?</p><p class='center-content'><img src='img/Jessica_Affiliation.jpg' height='410' width='730'></img></p>", "expr": "affiliation", "time_elapsed": 116141, "internal_node_id": "0.0-1.0-13.0", "key_press": 80, "trial_index": 14, "gend": "female", "condition": 2}, {"rt": 647, "trial_type": "single-stim", "name": "Marcus", "stimulus": "<p class='center-content'>Is this a smile?</p><p class='center-content'><img src='img/Marcus.jpg' height='410' width='730'></img></p>", "expr": "neutral", "time_elapsed": 116790, "internal_node_id": "0.0-1.0-14.0", "key_press": 81, "trial_index": 15, "gend": "male", "condition": 2}, {"rt": 653, "trial_type": "single-stim", "name": "Anna", "stimulus": "<p class='center-content'>Is this a smile?</p><p class='center-content'><img src='img/Anna_Dominance.jpg' height='410' width='730'></img></p>", "expr": "dominance", "time_elapsed": 117445, "internal_node_id": "0.0-1.0-15.0", "key_press": 80, "trial_index": 16, "gend": "female", "condition": 2}, {"rt": 648, "trial_type": "single-stim", "name": "Andrew", "stimulus": "<p class='center-content'>Is this a smile?</p><p class='center-content'><img src='img/Andrew_Affiliation.jpg' height='410' width='730'></img></p>", "expr": "affiliation", "time_elapsed": 118094, "internal_node_id": "0.0-1.0-16.0", "key_press": 80, "trial_index": 17, "gend": "male", "condition": 2}, {"rt": 673, "trial_type": "single-stim", "name": "Jessica", "stimulus": "<p class='center-content'>Is this a smile?</p><p class='center-content'><img src='img/Jessica_Disgust.jpg' height='410' width='730'></img></p>", "expr": "disgust", "time_elapsed": 118770, "internal_node_id": "0.0-1.0-17.0", "key_press": 81, "trial_index": 18, "gend": "female", "condition": 2}, {"rt": 668, "trial_type": "single-stim", "name": "Dmonte", "stimulus": "<p class='center-content'>Is this a smile?</p><p class='center-content'><img src='img/Dmonte_Affiliation.jpg' height='410' width='730'></img></p>", "expr": "affiliation", "time_elapsed": 119440, "internal_node_id": "0.0-1.0-18.0", "key_press": 80, "trial_index": 19, "gend": "male", "condition": 2}, {"rt": 672, "trial_type": "single-stim", "name": "Lulu", "stimulus": "<p class='center-content'>Is this a smile?</p><p class='center-content'><img src='img/Lulu_Reward.jpg' height='410' width='730'></img></p>", "expr": "reward", "time_elapsed": 120113, "internal_node_id": "0.0-1.0-19.0", "key_press": 80, "trial_index": 20, "gend": "female", "condition": 2}, {"rt": 699, "trial_type": "single-stim", "name": "Maurice", "stimulus": "<p class='center-content'>Is this a smile?</p><p class='center-content'><img src='img/Maurice_Affiliation.jpg' height='410' width='730'></img></p>", "expr": "affiliation", "time_elapsed": 120815, "internal_node_id": "0.0-1.0-20.0", "key_press": 80, "trial_index": 21, "gend": "male", "condition": 2}, {"rt": 597, "trial_type": "single-stim", "name": "Marcus", "stimulus": "<p class='center-content'>Is this a smile?</p><p class='center-content'><img src='img/Marcus_Affiliation.jpg' height='410' width='730'></img></p>", "expr": "affiliation", "time_elapsed": 121413, "internal_node_id": "0.0-1.0-21.0", "key_press": 80, "trial_index": 22, "gend": "male", "condition": 2}, {"rt": 1305, "trial_type": "single-stim", "name": "KJ", "stimulus": "<p class='center-content'>Is this a smile?</p><p class='center-content'><img src='img/KJ.jpg' height='410' width='730'></img></p>", "expr": "neutral", "time_elapsed": 122721, "internal_node_id": "0.0-1.0-22.0", "key_press": 81, "trial_index": 23, "gend": "female", "condition": 2}, {"rt": 893, "trial_type": "single-stim", "name": "Anna", "stimulus": "<p class='center-content'>Is this a smile?</p><p class='center-content'><img src='img/Anna_Disgust.jpg' height='410' width='730'></img></p>", "expr": "disgust", "time_elapsed": 123616, "internal_node_id": "0.0-1.0-23.0", "key_press": 81, "trial_index": 24, "gend": "female", "condition": 2}, {"rt": 841, "trial_type": "single-stim", "name": "KJ", "stimulus": "<p class='center-content'>Is this a smile?</p><p class='center-content'><img src='img/KJ_Disgust.jpg' height='410' width='730'></img></p>", "expr": "disgust", "time_elapsed": 124458, "internal_node_id": "0.0-1.0-24.0", "key_press": 81, "trial_index": 25, "gend": "female", "condition": 2}, {"rt": 650, "trial_type": "single-stim", "name": "Zach", "stimulus": "<p class='center-content'>Is this a smile?</p><p class='center-content'><img src='img/Zach.jpg' height='410' width='730'></img></p>", "expr": "neutral", "time_elapsed": 125111, "internal_node_id": "0.0-1.0-25.0", "key_press": 81, "trial_index": 26, "gend": "male", "condition": 2}, {"rt": 843, "trial_type": "single-stim", "name": "Dmonte", "stimulus": "<p class='center-content'>Is this a smile?</p><p class='center-content'><img src='img/Dmonte.jpg' height='410' width='730'></img></p>", "expr": "neutral", "time_elapsed": 125955, "internal_node_id": "0.0-1.0-26.0", "key_press": 81, "trial_index": 27, "gend": "male", "condition": 2}, {"rt": 678, "trial_type": "single-stim", "name": "Joeseph", "stimulus": "<p class='center-content'>Is this a smile?</p><p class='center-content'><img src='img/Joeseph.jpg' height='410' width='730'></img></p>", "expr": "neutral", "time_elapsed": 126635, "internal_node_id": "0.0-1.0-27.0", "key_press": 81, "trial_index": 28, "gend": "male", "condition": 2}, {"rt": 767, "trial_type": "single-stim", "name": "Jourdan", "stimulus": "<p class='center-content'>Is this a smile?</p><p class='center-content'><img src='img/Jourdan_Disgust.jpg' height='410' width='730'></img></p>", "expr": "disgust", "time_elapsed": 127405, "internal_node_id": "0.0-1.0-28.0", "key_press": 81, "trial_index": 29, "gend": "male", "condition": 2}, {"rt": 607, "trial_type": "single-stim", "name": "Jourdan", "stimulus": "<p class='center-content'>Is this a smile?</p><p class='center-content'><img src='img/Jourdan.jpg' height='410' width='730'></img></p>", "expr": "neutral", "time_elapsed": 128013, "internal_node_id": "0.0-1.0-29.0", "key_press": 81, "trial_index": 30, "gend": "male", "condition": 2}, {"rt": 695, "trial_type": "single-stim", "name": "Naomi", "stimulus": "<p class='center-content'>Is this a smile?</p><p class='center-content'><img src='img/Naomi_Affiliation.jpg' height='410' width='730'></img></p>", "expr": "affiliation", "time_elapsed": 128711, "internal_node_id": "0.0-1.0-30.0", "key_press": 80, "trial_index": 31, "gend": "female", "condition": 2}, {"rt": 570, "trial_type": "single-stim", "name": "Mary", "stimulus": "<p class='center-content'>Is this a smile?</p><p class='center-content'><img src='img/Mary_Reward.jpg' height='410' width='730'></img></p>", "expr": "reward", "time_elapsed": 129282, "internal_node_id": "0.0-1.0-31.0", "key_press": 80, "trial_index": 32, "gend": "female", "condition": 2}, {"rt": 821, "trial_type": "single-stim", "name": "Marcus", "stimulus": "<p class='center-content'>Is this a smile?</p><p class='center-content'><img src='img/Marcus_Disgust.jpg' height='410' width='730'></img></p>", "expr": "disgust", "time_elapsed": 130106, "internal_node_id": "0.0-1.0-32.0", "key_press": 81, "trial_index": 33, "gend": "male", "condition": 2}, {"rt": 686, "trial_type": "single-stim", "name": "Ashley", "stimulus": "<p class='center-content'>Is this a smile?</p><p class='center-content'><img src='img/Ashley_Dominance.jpg' height='410' width='730'></img></p>", "expr": "dominance", "time_elapsed": 130795, "internal_node_id": "0.0-1.0-33.0", "key_press": 80, "trial_index": 34, "gend": "female", "condition": 2}, {"rt": 649, "trial_type": "single-stim", "name": "Ashley", "stimulus": "<p class='center-content'>Is this a smile?</p><p class='center-content'><img src='img/Ashley_Reward.jpg' height='410' width='730'></img></p>", "expr": "reward", "time_elapsed": 131445, "internal_node_id": "0.0-1.0-34.0", "key_press": 80, "trial_index": 35, "gend": "female", "condition": 2}, {"rt": 626, "trial_type": "single-stim", "name": "Jessica", "stimulus": "<p class='center-content'>Is this a smile?</p><p class='center-content'><img src='img/Jessica.jpg' height='410' width='730'></img></p>", "expr": "neutral", "time_elapsed": 132073, "internal_node_id": "0.0-1.0-35.0", "key_press": 81, "trial_index": 36, "gend": "female", "condition": 2}, {"rt": 1017, "trial_type": "single-stim", "name": "Joeseph", "stimulus": "<p class='center-content'>Is this a smile?</p><p class='center-content'><img src='img/Joeseph_Affiliation.jpg' height='410' width='730'></img></p>", "expr": "affiliation", "time_elapsed": 133091, "internal_node_id": "0.0-1.0-36.0", "key_press": 81, "trial_index": 37, "gend": "male", "condition": 2}, {"rt": 679, "trial_type": "single-stim", "name": "Zach", "stimulus": "<p class='center-content'>Is this a smile?</p><p class='center-content'><img src='img/Zach_Disgust.jpg' height='410' width='730'></img></p>", "expr": "disgust", "time_elapsed": 133773, "internal_node_id": "0.0-1.0-37.0", "key_press": 81, "trial_index": 38, "gend": "male", "condition": 2}, {"rt": 634, "trial_type": "single-stim", "name": "Mary", "stimulus": "<p class='center-content'>Is this a smile?</p><p class='center-content'><img src='img/Mary.jpg' height='410' width='730'></img></p>", "expr": "neutral", "time_elapsed": 134409, "internal_node_id": "0.0-1.0-38.0", "key_press": 81, "trial_index": 39, "gend": "female", "condition": 2}, {"rt": 815, "trial_type": "single-stim", "name": "Lulu", "stimulus": "<p class='center-content'>Is this a smile?</p><p class='center-content'><img src='img/Lulu_Dominance.jpg' height='410' width='730'></img></p>", "expr": "dominance", "time_elapsed": 135226, "internal_node_id": "0.0-1.0-39.0", "key_press": 80, "trial_index": 40, "gend": "female", "condition": 2}, {"rt": 1763, "trial_type": "single-stim", "name": "Joeseph", "stimulus": "<p class='center-content'>Is this a smile?</p><p class='center-content'><img src='img/Joeseph_Dominance.jpg' height='410' width='730'></img></p>", "expr": "dominance", "time_elapsed": 136990, "internal_node_id": "0.0-1.0-40.0", "key_press": 80, "trial_index": 41, "gend": "male", "condition": 2}, {"rt": 638, "trial_type": "single-stim", "name": "Anthony", "stimulus": "<p class='center-content'>Is this a smile?</p><p class='center-content'><img src='img/Anthony.jpg' height='410' width='730'></img></p>", "expr": "neutral", "time_elapsed": 137630, "internal_node_id": "0.0-1.0-41.0", "key_press": 81, "trial_index": 42, "gend": "male", "condition": 2}, {"rt": 661, "trial_type": "single-stim", "name": "Joeseph", "stimulus": "<p class='center-content'>Is this a smile?</p><p class='center-content'><img src='img/Joeseph_Reward.jpg' height='410' width='730'></img></p>", "expr": "reward", "time_elapsed": 138294, "internal_node_id": "0.0-1.0-42.0", "key_press": 80, "trial_index": 43, "gend": "male", "condition": 2}, {"rt": 648, "trial_type": "single-stim", "name": "KJ", "stimulus": "<p class='center-content'>Is this a smile?</p><p class='center-content'><img src='img/KJ_Dominance.jpg' height='410' width='730'></img></p>", "expr": "dominance", "time_elapsed": 138943, "internal_node_id": "0.0-1.0-43.0", "key_press": 80, "trial_index": 44, "gend": "female", "condition": 2}, {"rt": 634, "trial_type": "single-stim", "name": "Andrew", "stimulus": "<p class='center-content'>Is this a smile?</p><p class='center-content'><img src='img/Andrew_Disgust.jpg' height='410' width='730'></img></p>", "expr": "disgust", "time_elapsed": 139580, "internal_node_id": "0.0-1.0-44.0", "key_press": 81, "trial_index": 45, "gend": "male", "condition": 2}, {"rt": 1317, "trial_type": "single-stim", "name": "Anthony", "stimulus": "<p class='center-content'>Is this a smile?</p><p class='center-content'><img src='img/Anthony_Affiliation.jpg' height='410' width='730'></img></p>", "expr": "affiliation", "time_elapsed": 140899, "internal_node_id": "0.0-1.0-45.0", "key_press": 80, "trial_index": 46, "gend": "male", "condition": 2}, {"rt": 634, "trial_type": "single-stim", "name": "Andrew", "stimulus": "<p class='center-content'>Is this a smile?</p><p class='center-content'><img src='img/Andrew.jpg' height='410' width='730'></img></p>", "expr": "neutral", "time_elapsed": 141534, "internal_node_id": "0.0-1.0-46.0", "key_press": 81, "trial_index": 47, "gend": "male", "condition": 2}, {"rt": 678, "trial_type": "single-stim", "name": "Jourdan", "stimulus": "<p class='center-content'>Is this a smile?</p><p class='center-content'><img src='img/Jourdan_Dominance.jpg' height='410' width='730'></img></p>", "expr": "dominance", "time_elapsed": 142215, "internal_node_id": "0.0-1.0-47.0", "key_press": 80, "trial_index": 48, "gend": "male", "condition": 2}, {"rt": 549, "trial_type": "single-stim", "name": "Jourdan", "stimulus": "<p class='center-content'>Is this a smile?</p><p class='center-content'><img src='img/Jourdan_Affiliation.jpg' height='410' width='730'></img></p>", "expr": "affiliation", "time_elapsed": 142766, "internal_node_id": "0.0-1.0-48.0", "key_press": 80, "trial_index": 49, "gend": "male", "condition": 2}, {"rt": 569, "trial_type": "single-stim", "name": "Marcus", "stimulus": "<p class='center-content'>Is this a smile?</p><p class='center-content'><img src='img/Marcus_Reward.jpg' height='410' width='730'></img></p>", "expr": "reward", "time_elapsed": 143337, "internal_node_id": "0.0-1.0-49.0", "key_press": 80, "trial_index": 50, "gend": "male", "condition": 2}, {"rt": 602, "trial_type": "single-stim", "name": "Andrew", "stimulus": "<p class='center-content'>Is this a smile?</p><p class='center-content'><img src='img/Andrew_Reward.jpg' height='410' width='730'></img></p>", "expr": "reward", "time_elapsed": 143940, "internal_node_id": "0.0-1.0-50.0", "key_press": 80, "trial_index": 51, "gend": "male", "condition": 2}, {"rt": 562, "trial_type": "single-stim", "name": "Marcus", "stimulus": "<p class='center-content'>Is this a smile?</p><p class='center-content'><img src='img/Marcus_Dominance.jpg' height='410' width='730'></img></p>", "expr": "dominance", "time_elapsed": 144505, "internal_node_id": "0.0-1.0-51.0", "key_press": 80, "trial_index": 52, "gend": "male", "condition": 2}, {"rt": 1771, "trial_type": "single-stim", "name": "Mary", "stimulus": "<p class='center-content'>Is this a smile?</p><p class='center-content'><img src='img/Mary_Dominance.jpg' height='410' width='730'></img></p>", "expr": "dominance", "time_elapsed": 146279, "internal_node_id": "0.0-1.0-52.0", "key_press": 81, "trial_index": 53, "gend": "female", "condition": 2}, {"rt": 867, "trial_type": "single-stim", "name": "Naomi", "stimulus": "<p class='center-content'>Is this a smile?</p><p class='center-content'><img src='img/Naomi.jpg' height='410' width='730'></img></p>", "expr": "neutral", "time_elapsed": 147148, "internal_node_id": "0.0-1.0-53.0", "key_press": 81, "trial_index": 54, "gend": "female", "condition": 2}, {"rt": 688, "trial_type": "single-stim", "name": "Naomi", "stimulus": "<p class='center-content'>Is this a smile?</p><p class='center-content'><img src='img/Naomi_Reward.jpg' height='410' width='730'></img></p>", "expr": "reward", "time_elapsed": 147839, "internal_node_id": "0.0-1.0-54.0", "key_press": 80, "trial_index": 55, "gend": "female", "condition": 2}, {"rt": 646, "trial_type": "single-stim", "name": "Jourdan", "stimulus": "<p class='center-content'>Is this a smile?</p><p class='center-content'><img src='img/Jourdan_Reward.jpg' height='410' width='730'></img></p>", "expr": "reward", "time_elapsed": 148487, "internal_node_id": "0.0-1.0-55.0", "key_press": 80, "trial_index": 56, "gend": "male", "condition": 2}, {"rt": 812, "trial_type": "single-stim", "name": "Naomi", "stimulus": "<p class='center-content'>Is this a smile?</p><p class='center-content'><img src='img/Naomi_Dominance.jpg' height='410' width='730'></img></p>", "expr": "dominance", "time_elapsed": 149300, "internal_node_id": "0.0-1.0-56.0", "key_press": 80, "trial_index": 57, "gend": "female", "condition": 2}, {"rt": 581, "trial_type": "single-stim", "name": "Zach", "stimulus": "<p class='center-content'>Is this a smile?</p><p class='center-content'><img src='img/Zach_Reward.jpg' height='410' width='730'></img></p>", "expr": "reward", "time_elapsed": 149882, "internal_node_id": "0.0-1.0-57.0", "key_press": 80, "trial_index": 58, "gend": "male", "condition": 2}, {"rt": 1428, "trial_type": "single-stim", "name": "Naomi", "stimulus": "<p class='center-content'>Is this a smile?</p><p class='center-content'><img src='img/Naomi_DIsgust.jpg' height='410' width='730'></img></p>", "expr": "disgust", "time_elapsed": 151311, "internal_node_id": "0.0-1.0-58.0", "key_press": 81, "trial_index": 59, "gend": "female", "condition": 2}, {"rt": 694, "trial_type": "single-stim", "name": "Jessica", "stimulus": "<p class='center-content'>Is this a smile?</p><p class='center-content'><img src='img/Jessica_Dominance.jpg' height='410' width='730'></img></p>", "expr": "dominance", "time_elapsed": 152008, "internal_node_id": "0.0-1.0-59.0", "key_press": 80, "trial_index": 60, "gend": "female", "condition": 2}, {"rt": 714, "trial_type": "single-stim", "name": "Lulu", "stimulus": "<p class='center-content'>Is this a smile?</p><p class='center-content'><img src='img/Lulu_Disgust.jpg' height='410' width='730'></img></p>", "expr": "disgust", "time_elapsed": 152724, "internal_node_id": "0.0-1.0-60.0", "key_press": 81, "trial_index": 61, "gend": "female", "condition": 2}, {"rt": 536, "trial_type": "single-stim", "name": "Joeseph", "stimulus": "<p class='center-content'>Is this a smile?</p><p class='center-content'><img src='img/Joeseph_Disgust.jpg' height='410' width='730'></img></p>", "expr": "disgust", "time_elapsed": 153261, "internal_node_id": "0.0-1.0-61.0", "key_press": 81, "trial_index": 62, "gend": "male", "condition": 2}, {"rt": 649, "trial_type": "single-stim", "name": "Andrew", "stimulus": "<p class='center-content'>Is this a smile?</p><p class='center-content'><img src='img/Andrew_Dominance.jpg' height='410' width='730'></img></p>", "expr": "dominance", "time_elapsed": 153911, "internal_node_id": "0.0-1.0-62.0", "key_press": 80, "trial_index": 63, "gend": "male", "condition": 2}, {"rt": 1041, "trial_type": "single-stim", "name": "Mary", "stimulus": "<p class='center-content'>Is this a smile?</p><p class='center-content'><img src='img/Mary_Affiliation.jpg' height='410' width='730'></img></p>", "expr": "affiliation", "time_elapsed": 154954, "internal_node_id": "0.0-1.0-63.0", "key_press": 80, "trial_index": 64, "gend": "female", "condition": 2}, {"rt": 709, "trial_type": "single-stim", "name": "Maurice", "stimulus": "<p class='center-content'>Is this a smile?</p><p class='center-content'><img src='img/Maurice.jpg' height='410' width='730'></img></p>", "expr": "neutral", "time_elapsed": 155664, "internal_node_id": "0.0-1.0-64.0", "key_press": 81, "trial_index": 65, "gend": "male", "condition": 2}, {"rt": 552, "trial_type": "single-stim", "name": "Zach", "stimulus": "<p class='center-content'>Is this a smile?</p><p class='center-content'><img src='img/Zach_Affiliation.jpg' height='410' width='730'></img></p>", "expr": "affiliation", "time_elapsed": 156218, "internal_node_id": "0.0-1.0-65.0", "key_press": 80, "trial_index": 66, "gend": "male", "condition": 2}, {"rt": 688, "trial_type": "single-stim", "name": "Ashley", "stimulus": "<p class='center-content'>Is this a smile?</p><p class='center-content'><img src='img/Ashley_Disgust.jpg' height='410' width='730'></img></p>", "expr": "disgust", "time_elapsed": 156908, "internal_node_id": "0.0-1.0-66.0", "key_press": 81, "trial_index": 67, "gend": "female", "condition": 2}, {"rt": 948, "trial_type": "single-stim", "name": "Anthony", "stimulus": "<p class='center-content'>Is this a smile?</p><p class='center-content'><img src='img/Anthony_Dominance.jpg' height='410' width='730'></img></p>", "expr": "dominance", "time_elapsed": 157859, "internal_node_id": "0.0-1.0-67.0", "key_press": 81, "trial_index": 68, "gend": "male", "condition": 2}, {"rt": 516, "trial_type": "single-stim", "name": "Anthony", "stimulus": "<p class='center-content'>Is this a smile?</p><p class='center-content'><img src='img/Anthony_Disgust.jpg' height='410' width='730'></img></p>", "expr": "disgust", "time_elapsed": 158378, "internal_node_id": "0.0-1.0-68.0", "key_press": 81, "trial_index": 69, "gend": "male", "condition": 2}, {"rt": 663, "trial_type": "single-stim", "name": "Dmonte", "stimulus": "<p class='center-content'>Is this a smile?</p><p class='center-content'><img src='img/Dmonte_Dominance.jpg' height='410' width='730'></img></p>", "expr": "dominance", "time_elapsed": 159042, "internal_node_id": "0.0-1.0-69.0", "key_press": 80, "trial_index": 70, "gend": "male", "condition": 2}, {"rt": 670, "trial_type": "single-stim", "name": "Anna", "stimulus": "<p class='center-content'>Is this a smile?</p><p class='center-content'><img src='img/Anna_Affiliation.jpg' height='410' width='730'></img></p>", "expr": "affiliation", "time_elapsed": 159715, "internal_node_id": "0.0-1.0-70.0", "key_press": 80, "trial_index": 71, "gend": "female", "condition": 2}, {"rt": 558, "trial_type": "single-stim", "name": "Dmonte", "stimulus": "<p class='center-content'>Is this a smile?</p><p class='center-content'><img src='img/Dmonte_Reward.jpg' height='410' width='730'></img></p>", "expr": "reward", "time_elapsed": 160275, "internal_node_id": "0.0-1.0-71.0", "key_press": 80, "trial_index": 72, "gend": "male", "condition": 2}, {"rt": 716, "trial_type": "single-stim", "name": "Ashley", "stimulus": "<p class='center-content'>Is this a smile?</p><p class='center-content'><img src='img/Ashley.jpg' height='410' width='730'></img></p>", "expr": "neutral", "time_elapsed": 160992, "internal_node_id": "0.0-1.0-72.0", "key_press": 81, "trial_index": 73, "gend": "female", "condition": 2}, {"rt": 629, "trial_type": "single-stim", "name": "KJ", "stimulus": "<p class='center-content'>Is this a smile?</p><p class='center-content'><img src='img/KJ_Affiliation.jpg' height='410' width='730'></img></p>", "expr": "affiliation", "time_elapsed": 161624, "internal_node_id": "0.0-1.0-73.0", "key_press": 80, "trial_index": 74, "gend": "female", "condition": 2}, {"rt": 635, "trial_type": "single-stim", "name": "Zach", "stimulus": "<p class='center-content'>Is this a smile?</p><p class='center-content'><img src='img/Zach_Dominance.jpg' height='410' width='730'></img></p>", "expr": "dominance", "time_elapsed": 162260, "internal_node_id": "0.0-1.0-74.0", "key_press": 81, "trial_index": 75, "gend": "male", "condition": 2}, {"rt": 4439, "trial_type": "survey-multi-choice", "responses": "{\"Q0\":\"Male\",\"Q1\":\"White/Caucasian/European American\",\"Q2\":\"Right\"}", "time_elapsed": 166705, "internal_node_id": "0.0-2.0", "trial_index": 76}, {"rt": 2977, "trial_type": "survey-text", "responses": "{\"Q0\":\"No\"}", "time_elapsed": 170683, "internal_node_id": "0.0-3.0", "trial_index": 77}, {"rt": 3368, "trial_type": "text", "time_elapsed": 175053, "internal_node_id": "0.0-4.0", "key_press": 68, "trial_index": 78}]}, "AcceptTime": "2017-12-05T22:23:30Z", "HITId": "3KI0JD2ZU1IG06NHG8G4GHU1G4D76H", "Assignment": "", "AssignmentStatus": "Approved", "SubmitTime": "2017-12-05T22:26:54Z"}