{"ApprovalTime": "2017-12-05T22:06:18Z", "AutoApprovalTime": "2017-12-05T22:05:24Z", "AssignmentId": "3OWEPKL089CRUBR25S7M7CCCGKD7N6", "WorkerId": "anon34", "answers": {"data": [{"rt": 2126, "trial_type": "text", "time_elapsed": 2146, "internal_node_id": "0.0-0.0", "key_press": 32, "trial_index": 0}, {"rt": 3664, "trial_type": "single-stim", "name": "Mary", "stimulus": "<p class='center-content'>Is this a smile?</p><p class='center-content'><img src='img/Mary_Affiliation.jpg' height='410' width='730'></img></p>", "expr": "affiliation", "time_elapsed": 7833, "internal_node_id": "0.0-1.0-0.0", "key_press": 81, "trial_index": 1, "gend": "female", "condition": 1}, {"rt": 1842, "trial_type": "single-stim", "name": "Anthony", "stimulus": "<p class='center-content'>Is this a smile?</p><p class='center-content'><img src='img/Anthony_Dominance.jpg' height='410' width='730'></img></p>", "expr": "dominance", "time_elapsed": 9687, "internal_node_id": "0.0-1.0-1.0", "key_press": 80, "trial_index": 2, "gend": "male", "condition": 1}, {"rt": 835, "trial_type": "single-stim", "name": "Joeseph", "stimulus": "<p class='center-content'>Is this a smile?</p><p class='center-content'><img src='img/Joeseph.jpg' height='410' width='730'></img></p>", "expr": "neutral", "time_elapsed": 10525, "internal_node_id": "0.0-1.0-2.0", "key_press": 80, "trial_index": 3, "gend": "male", "condition": 1}, {"rt": 769, "trial_type": "single-stim", "name": "Andrew", "stimulus": "<p class='center-content'>Is this a smile?</p><p class='center-content'><img src='img/Andrew_Affiliation.jpg' height='410' width='730'></img></p>", "expr": "affiliation", "time_elapsed": 11302, "internal_node_id": "0.0-1.0-3.0", "key_press": 81, "trial_index": 4, "gend": "male", "condition": 1}, {"rt": 551, "trial_type": "single-stim", "name": "Maurice", "stimulus": "<p class='center-content'>Is this a smile?</p><p class='center-content'><img src='img/Maurice_Affiliation.jpg' height='410' width='730'></img></p>", "expr": "affiliation", "time_elapsed": 11857, "internal_node_id": "0.0-1.0-4.0", "key_press": 81, "trial_index": 5, "gend": "male", "condition": 1}, {"rt": 1077, "trial_type": "single-stim", "name": "Andrew", "stimulus": "<p class='center-content'>Is this a smile?</p><p class='center-content'><img src='img/Andrew.jpg' height='410' width='730'></img></p>", "expr": "neutral", "time_elapsed": 12943, "internal_node_id": "0.0-1.0-5.0", "key_press": 80, "trial_index": 6, "gend": "male", "condition": 1}, {"rt": 791, "trial_type": "single-stim", "name": "Maurice", "stimulus": "<p class='center-content'>Is this a smile?</p><p class='center-content'><img src='img/Maurice_Reward.jpg' height='410' width='730'></img></p>", "expr": "reward", "time_elapsed": 13743, "internal_node_id": "0.0-1.0-6.0", "key_press": 81, "trial_index": 7, "gend": "male", "condition": 1}, {"rt": 866, "trial_type": "single-stim", "name": "Lulu", "stimulus": "<p class='center-content'>Is this a smile?</p><p class='center-content'><img src='img/Lulu.jpg' height='410' width='730'></img></p>", "expr": "neutral", "time_elapsed": 14619, "internal_node_id": "0.0-1.0-7.0", "key_press": 80, "trial_index": 8, "gend": "female", "condition": 1}, {"rt": 1075, "trial_type": "single-stim", "name": "Marcus", "stimulus": "<p class='center-content'>Is this a smile?</p><p class='center-content'><img src='img/Marcus_Disgust.jpg' height='410' width='730'></img></p>", "expr": "disgust", "time_elapsed": 15706, "internal_node_id": "0.0-1.0-8.0", "key_press": 80, "trial_index": 9, "gend": "male", "condition": 1}, {"rt": 938, "trial_type": "single-stim", "name": "Dmonte", "stimulus": "<p class='center-content'>Is this a smile?</p><p class='center-content'><img src='img/Dmonte_Dominance.jpg' height='410' width='730'></img></p>", "expr": "dominance", "time_elapsed": 16653, "internal_node_id": "0.0-1.0-9.0", "key_press": 81, "trial_index": 10, "gend": "male", "condition": 1}, {"rt": 1202, "trial_type": "single-stim", "name": "Maurice", "stimulus": "<p class='center-content'>Is this a smile?</p><p class='center-content'><img src='img/Maurice.jpg' height='410' width='730'></img></p>", "expr": "neutral", "time_elapsed": 17869, "internal_node_id": "0.0-1.0-10.0", "key_press": 81, "trial_index": 11, "gend": "male", "condition": 1}, {"rt": 679, "trial_type": "single-stim", "name": "Dmonte", "stimulus": "<p class='center-content'>Is this a smile?</p><p class='center-content'><img src='img/Dmonte_Reward.jpg' height='410' width='730'></img></p>", "expr": "reward", "time_elapsed": 18558, "internal_node_id": "0.0-1.0-11.0", "key_press": 80, "trial_index": 12, "gend": "male", "condition": 1}, {"rt": 1205, "trial_type": "single-stim", "name": "Joeseph", "stimulus": "<p class='center-content'>Is this a smile?</p><p class='center-content'><img src='img/Joeseph_Reward.jpg' height='410' width='730'></img></p>", "expr": "reward", "time_elapsed": 19775, "internal_node_id": "0.0-1.0-12.0", "key_press": 81, "trial_index": 13, "gend": "male", "condition": 1}, {"rt": 731, "trial_type": "single-stim", "name": "Lulu", "stimulus": "<p class='center-content'>Is this a smile?</p><p class='center-content'><img src='img/Lulu_Dominance.jpg' height='410' width='730'></img></p>", "expr": "dominance", "time_elapsed": 20513, "internal_node_id": "0.0-1.0-13.0", "key_press": 81, "trial_index": 14, "gend": "female", "condition": 1}, {"rt": 626, "trial_type": "single-stim", "name": "Naomi", "stimulus": "<p class='center-content'>Is this a smile?</p><p class='center-content'><img src='img/Naomi_Dominance.jpg' height='410' width='730'></img></p>", "expr": "dominance", "time_elapsed": 21147, "internal_node_id": "0.0-1.0-14.0", "key_press": 81, "trial_index": 15, "gend": "female", "condition": 1}, {"rt": 586, "trial_type": "single-stim", "name": "Andrew", "stimulus": "<p class='center-content'>Is this a smile?</p><p class='center-content'><img src='img/Andrew_Dominance.jpg' height='410' width='730'></img></p>", "expr": "dominance", "time_elapsed": 21739, "internal_node_id": "0.0-1.0-15.0", "key_press": 81, "trial_index": 16, "gend": "male", "condition": 1}, {"rt": 1110, "trial_type": "single-stim", "name": "Naomi", "stimulus": "<p class='center-content'>Is this a smile?</p><p class='center-content'><img src='img/Naomi_DIsgust.jpg' height='410' width='730'></img></p>", "expr": "disgust", "time_elapsed": 22859, "internal_node_id": "0.0-1.0-16.0", "key_press": 81, "trial_index": 17, "gend": "female", "condition": 1}, {"rt": 850, "trial_type": "single-stim", "name": "Marcus", "stimulus": "<p class='center-content'>Is this a smile?</p><p class='center-content'><img src='img/Marcus_Affiliation.jpg' height='410' width='730'></img></p>", "expr": "affiliation", "time_elapsed": 23717, "internal_node_id": "0.0-1.0-17.0", "key_press": 81, "trial_index": 18, "gend": "male", "condition": 1}, {"rt": 510, "trial_type": "single-stim", "name": "Marcus", "stimulus": "<p class='center-content'>Is this a smile?</p><p class='center-content'><img src='img/Marcus.jpg' height='410' width='730'></img></p>", "expr": "neutral", "time_elapsed": 24238, "internal_node_id": "0.0-1.0-18.0", "key_press": 81, "trial_index": 19, "gend": "male", "condition": 1}, {"rt": 734, "trial_type": "single-stim", "name": "Lulu", "stimulus": "<p class='center-content'>Is this a smile?</p><p class='center-content'><img src='img/Lulu_Reward.jpg' height='410' width='730'></img></p>", "expr": "reward", "time_elapsed": 24981, "internal_node_id": "0.0-1.0-19.0", "key_press": 81, "trial_index": 20, "gend": "female", "condition": 1}, {"rt": 705, "trial_type": "single-stim", "name": "Anthony", "stimulus": "<p class='center-content'>Is this a smile?</p><p class='center-content'><img src='img/Anthony_Affiliation.jpg' height='410' width='730'></img></p>", "expr": "affiliation", "time_elapsed": 25708, "internal_node_id": "0.0-1.0-20.0", "key_press": 81, "trial_index": 21, "gend": "male", "condition": 1}, {"rt": 1349, "trial_type": "single-stim", "name": "Andrew", "stimulus": "<p class='center-content'>Is this a smile?</p><p class='center-content'><img src='img/Andrew_Disgust.jpg' height='410' width='730'></img></p>", "expr": "disgust", "time_elapsed": 27072, "internal_node_id": "0.0-1.0-21.0", "key_press": 80, "trial_index": 22, "gend": "male", "condition": 1}, {"rt": 1205, "trial_type": "single-stim", "name": "Joeseph", "stimulus": "<p class='center-content'>Is this a smile?</p><p class='center-content'><img src='img/Joeseph_Dominance.jpg' height='410' width='730'></img></p>", "expr": "dominance", "time_elapsed": 28285, "internal_node_id": "0.0-1.0-22.0", "key_press": 81, "trial_index": 23, "gend": "male", "condition": 1}, {"rt": 1202, "trial_type": "single-stim", "name": "Mary", "stimulus": "<p class='center-content'>Is this a smile?</p><p class='center-content'><img src='img/Mary.jpg' height='410' width='730'></img></p>", "expr": "neutral", "time_elapsed": 29497, "internal_node_id": "0.0-1.0-23.0", "key_press": 80, "trial_index": 24, "gend": "female", "condition": 1}, {"rt": 1029, "trial_type": "single-stim", "name": "Zach", "stimulus": "<p class='center-content'>Is this a smile?</p><p class='center-content'><img src='img/Zach_Affiliation.jpg' height='410' width='730'></img></p>", "expr": "affiliation", "time_elapsed": 30536, "internal_node_id": "0.0-1.0-24.0", "key_press": 81, "trial_index": 25, "gend": "male", "condition": 1}, {"rt": 910, "trial_type": "single-stim", "name": "Jessica", "stimulus": "<p class='center-content'>Is this a smile?</p><p class='center-content'><img src='img/Jessica_Reward.jpg' height='410' width='730'></img></p>", "expr": "reward", "time_elapsed": 31452, "internal_node_id": "0.0-1.0-25.0", "key_press": 81, "trial_index": 26, "gend": "female", "condition": 1}, {"rt": 1645, "trial_type": "single-stim", "name": "Zach", "stimulus": "<p class='center-content'>Is this a smile?</p><p class='center-content'><img src='img/Zach_Disgust.jpg' height='410' width='730'></img></p>", "expr": "disgust", "time_elapsed": 33100, "internal_node_id": "0.0-1.0-26.0", "key_press": 80, "trial_index": 27, "gend": "male", "condition": 1}, {"rt": 931, "trial_type": "single-stim", "name": "Naomi", "stimulus": "<p class='center-content'>Is this a smile?</p><p class='center-content'><img src='img/Naomi_Reward.jpg' height='410' width='730'></img></p>", "expr": "reward", "time_elapsed": 34036, "internal_node_id": "0.0-1.0-27.0", "key_press": 81, "trial_index": 28, "gend": "female", "condition": 1}, {"rt": 843, "trial_type": "single-stim", "name": "Jessica", "stimulus": "<p class='center-content'>Is this a smile?</p><p class='center-content'><img src='img/Jessica_Affiliation.jpg' height='410' width='730'></img></p>", "expr": "affiliation", "time_elapsed": 34885, "internal_node_id": "0.0-1.0-28.0", "key_press": 81, "trial_index": 29, "gend": "female", "condition": 1}, {"rt": 830, "trial_type": "single-stim", "name": "Dmonte", "stimulus": "<p class='center-content'>Is this a smile?</p><p class='center-content'><img src='img/Dmonte_Disgust.jpg' height='410' width='730'></img></p>", "expr": "disgust", "time_elapsed": 35723, "internal_node_id": "0.0-1.0-29.0", "key_press": 80, "trial_index": 30, "gend": "male", "condition": 1}, {"rt": 944, "trial_type": "single-stim", "name": "Naomi", "stimulus": "<p class='center-content'>Is this a smile?</p><p class='center-content'><img src='img/Naomi.jpg' height='410' width='730'></img></p>", "expr": "neutral", "time_elapsed": 36676, "internal_node_id": "0.0-1.0-30.0", "key_press": 80, "trial_index": 31, "gend": "female", "condition": 1}, {"rt": 860, "trial_type": "single-stim", "name": "Anna", "stimulus": "<p class='center-content'>Is this a smile?</p><p class='center-content'><img src='img/Anna_Affiliation.jpg' height='410' width='730'></img></p>", "expr": "affiliation", "time_elapsed": 37548, "internal_node_id": "0.0-1.0-31.0", "key_press": 81, "trial_index": 32, "gend": "female", "condition": 1}, {"rt": 917, "trial_type": "single-stim", "name": "Ashley", "stimulus": "<p class='center-content'>Is this a smile?</p><p class='center-content'><img src='img/Ashley.jpg' height='410' width='730'></img></p>", "expr": "neutral", "time_elapsed": 38471, "internal_node_id": "0.0-1.0-32.0", "key_press": 80, "trial_index": 33, "gend": "female", "condition": 1}, {"rt": 877, "trial_type": "single-stim", "name": "Ashley", "stimulus": "<p class='center-content'>Is this a smile?</p><p class='center-content'><img src='img/Ashley_Dominance.jpg' height='410' width='730'></img></p>", "expr": "dominance", "time_elapsed": 39358, "internal_node_id": "0.0-1.0-33.0", "key_press": 80, "trial_index": 34, "gend": "female", "condition": 1}, {"rt": 1371, "trial_type": "single-stim", "name": "Anna", "stimulus": "<p class='center-content'>Is this a smile?</p><p class='center-content'><img src='img/Anna.jpg' height='410' width='730'></img></p>", "expr": "neutral", "time_elapsed": 40737, "internal_node_id": "0.0-1.0-34.0", "key_press": 80, "trial_index": 35, "gend": "female", "condition": 1}, {"rt": 1070, "trial_type": "single-stim", "name": "Anthony", "stimulus": "<p class='center-content'>Is this a smile?</p><p class='center-content'><img src='img/Anthony.jpg' height='410' width='730'></img></p>", "expr": "neutral", "time_elapsed": 41820, "internal_node_id": "0.0-1.0-35.0", "key_press": 80, "trial_index": 36, "gend": "male", "condition": 1}, {"rt": 816, "trial_type": "single-stim", "name": "Mary", "stimulus": "<p class='center-content'>Is this a smile?</p><p class='center-content'><img src='img/Mary_Reward.jpg' height='410' width='730'></img></p>", "expr": "reward", "time_elapsed": 42650, "internal_node_id": "0.0-1.0-36.0", "key_press": 81, "trial_index": 37, "gend": "female", "condition": 1}, {"rt": 868, "trial_type": "single-stim", "name": "KJ", "stimulus": "<p class='center-content'>Is this a smile?</p><p class='center-content'><img src='img/KJ_Affiliation.jpg' height='410' width='730'></img></p>", "expr": "affiliation", "time_elapsed": 43529, "internal_node_id": "0.0-1.0-37.0", "key_press": 81, "trial_index": 38, "gend": "female", "condition": 1}, {"rt": 814, "trial_type": "single-stim", "name": "Marcus", "stimulus": "<p class='center-content'>Is this a smile?</p><p class='center-content'><img src='img/Marcus_Reward.jpg' height='410' width='730'></img></p>", "expr": "reward", "time_elapsed": 44351, "internal_node_id": "0.0-1.0-38.0", "key_press": 81, "trial_index": 39, "gend": "male", "condition": 1}, {"rt": 939, "trial_type": "single-stim", "name": "Naomi", "stimulus": "<p class='center-content'>Is this a smile?</p><p class='center-content'><img src='img/Naomi_Affiliation.jpg' height='410' width='730'></img></p>", "expr": "affiliation", "time_elapsed": 45301, "internal_node_id": "0.0-1.0-39.0", "key_press": 81, "trial_index": 40, "gend": "female", "condition": 1}, {"rt": 580, "trial_type": "single-stim", "name": "KJ", "stimulus": "<p class='center-content'>Is this a smile?</p><p class='center-content'><img src='img/KJ.jpg' height='410' width='730'></img></p>", "expr": "neutral", "time_elapsed": 45891, "internal_node_id": "0.0-1.0-40.0", "key_press": 81, "trial_index": 41, "gend": "female", "condition": 1}, {"rt": 867, "trial_type": "single-stim", "name": "Ashley", "stimulus": "<p class='center-content'>Is this a smile?</p><p class='center-content'><img src='img/Ashley_Disgust.jpg' height='410' width='730'></img></p>", "expr": "disgust", "time_elapsed": 46766, "internal_node_id": "0.0-1.0-41.0", "key_press": 80, "trial_index": 42, "gend": "female", "condition": 1}, {"rt": 772, "trial_type": "single-stim", "name": "Jourdan", "stimulus": "<p class='center-content'>Is this a smile?</p><p class='center-content'><img src='img/Jourdan.jpg' height='410' width='730'></img></p>", "expr": "neutral", "time_elapsed": 47545, "internal_node_id": "0.0-1.0-42.0", "key_press": 80, "trial_index": 43, "gend": "male", "condition": 1}, {"rt": 766, "trial_type": "single-stim", "name": "Jourdan", "stimulus": "<p class='center-content'>Is this a smile?</p><p class='center-content'><img src='img/Jourdan_Disgust.jpg' height='410' width='730'></img></p>", "expr": "disgust", "time_elapsed": 48323, "internal_node_id": "0.0-1.0-43.0", "key_press": 80, "trial_index": 44, "gend": "male", "condition": 1}, {"rt": 717, "trial_type": "single-stim", "name": "Dmonte", "stimulus": "<p class='center-content'>Is this a smile?</p><p class='center-content'><img src='img/Dmonte_Affiliation.jpg' height='410' width='730'></img></p>", "expr": "affiliation", "time_elapsed": 49047, "internal_node_id": "0.0-1.0-44.0", "key_press": 81, "trial_index": 45, "gend": "male", "condition": 1}, {"rt": 824, "trial_type": "single-stim", "name": "KJ", "stimulus": "<p class='center-content'>Is this a smile?</p><p class='center-content'><img src='img/KJ_Disgust.jpg' height='410' width='730'></img></p>", "expr": "disgust", "time_elapsed": 49877, "internal_node_id": "0.0-1.0-45.0", "key_press": 80, "trial_index": 46, "gend": "female", "condition": 1}, {"rt": 1052, "trial_type": "single-stim", "name": "Mary", "stimulus": "<p class='center-content'>Is this a smile?</p><p class='center-content'><img src='img/Mary_Dominance.jpg' height='410' width='730'></img></p>", "expr": "dominance", "time_elapsed": 50935, "internal_node_id": "0.0-1.0-46.0", "key_press": 81, "trial_index": 47, "gend": "female", "condition": 1}, {"rt": 742, "trial_type": "single-stim", "name": "Zach", "stimulus": "<p class='center-content'>Is this a smile?</p><p class='center-content'><img src='img/Zach_Reward.jpg' height='410' width='730'></img></p>", "expr": "reward", "time_elapsed": 51680, "internal_node_id": "0.0-1.0-47.0", "key_press": 81, "trial_index": 48, "gend": "male", "condition": 1}, {"rt": 706, "trial_type": "single-stim", "name": "Maurice", "stimulus": "<p class='center-content'>Is this a smile?</p><p class='center-content'><img src='img/Maurice_Dominance.jpg' height='410' width='730'></img></p>", "expr": "dominance", "time_elapsed": 52392, "internal_node_id": "0.0-1.0-48.0", "key_press": 81, "trial_index": 49, "gend": "male", "condition": 1}, {"rt": 663, "trial_type": "single-stim", "name": "Ashley", "stimulus": "<p class='center-content'>Is this a smile?</p><p class='center-content'><img src='img/Ashley_Affiliation.jpg' height='410' width='730'></img></p>", "expr": "affiliation", "time_elapsed": 53061, "internal_node_id": "0.0-1.0-49.0", "key_press": 81, "trial_index": 50, "gend": "female", "condition": 1}, {"rt": 814, "trial_type": "single-stim", "name": "Maurice", "stimulus": "<p class='center-content'>Is this a smile?</p><p class='center-content'><img src='img/Maurice_Disgust.jpg' height='410' width='730'></img></p>", "expr": "disgust", "time_elapsed": 53880, "internal_node_id": "0.0-1.0-50.0", "key_press": 80, "trial_index": 51, "gend": "male", "condition": 1}, {"rt": 674, "trial_type": "single-stim", "name": "Anthony", "stimulus": "<p class='center-content'>Is this a smile?</p><p class='center-content'><img src='img/Anthony_Disgust.jpg' height='410' width='730'></img></p>", "expr": "disgust", "time_elapsed": 54556, "internal_node_id": "0.0-1.0-51.0", "key_press": 80, "trial_index": 52, "gend": "male", "condition": 1}, {"rt": 691, "trial_type": "single-stim", "name": "Jessica", "stimulus": "<p class='center-content'>Is this a smile?</p><p class='center-content'><img src='img/Jessica_Disgust.jpg' height='410' width='730'></img></p>", "expr": "disgust", "time_elapsed": 55252, "internal_node_id": "0.0-1.0-52.0", "key_press": 80, "trial_index": 53, "gend": "female", "condition": 1}, {"rt": 1483, "trial_type": "single-stim", "name": "Marcus", "stimulus": "<p class='center-content'>Is this a smile?</p><p class='center-content'><img src='img/Marcus_Dominance.jpg' height='410' width='730'></img></p>", "expr": "dominance", "time_elapsed": 56739, "internal_node_id": "0.0-1.0-53.0", "key_press": 80, "trial_index": 54, "gend": "male", "condition": 1}, {"rt": 822, "trial_type": "single-stim", "name": "Zach", "stimulus": "<p class='center-content'>Is this a smile?</p><p class='center-content'><img src='img/Zach.jpg' height='410' width='730'></img></p>", "expr": "neutral", "time_elapsed": 57565, "internal_node_id": "0.0-1.0-54.0", "key_press": 80, "trial_index": 55, "gend": "male", "condition": 1}, {"rt": 668, "trial_type": "single-stim", "name": "Joeseph", "stimulus": "<p class='center-content'>Is this a smile?</p><p class='center-content'><img src='img/Joeseph_Disgust.jpg' height='410' width='730'></img></p>", "expr": "disgust", "time_elapsed": 58237, "internal_node_id": "0.0-1.0-55.0", "key_press": 80, "trial_index": 56, "gend": "male", "condition": 1}, {"rt": 763, "trial_type": "single-stim", "name": "Anthony", "stimulus": "<p class='center-content'>Is this a smile?</p><p class='center-content'><img src='img/Anthony_Reward.jpg' height='410' width='730'></img></p>", "expr": "reward", "time_elapsed": 59004, "internal_node_id": "0.0-1.0-56.0", "key_press": 81, "trial_index": 57, "gend": "male", "condition": 1}, {"rt": 612, "trial_type": "single-stim", "name": "Anna", "stimulus": "<p class='center-content'>Is this a smile?</p><p class='center-content'><img src='img/Anna_Disgust.jpg' height='410' width='730'></img></p>", "expr": "disgust", "time_elapsed": 59620, "internal_node_id": "0.0-1.0-57.0", "key_press": 81, "trial_index": 58, "gend": "female", "condition": 1}, {"rt": 1215, "trial_type": "single-stim", "name": "Anna", "stimulus": "<p class='center-content'>Is this a smile?</p><p class='center-content'><img src='img/Anna_Dominance.jpg' height='410' width='730'></img></p>", "expr": "dominance", "time_elapsed": 60845, "internal_node_id": "0.0-1.0-58.0", "key_press": 81, "trial_index": 59, "gend": "female", "condition": 1}, {"rt": 1162, "trial_type": "single-stim", "name": "Andrew", "stimulus": "<p class='center-content'>Is this a smile?</p><p class='center-content'><img src='img/Andrew_Reward.jpg' height='410' width='730'></img></p>", "expr": "reward", "time_elapsed": 62018, "internal_node_id": "0.0-1.0-59.0", "key_press": 81, "trial_index": 60, "gend": "male", "condition": 1}, {"rt": 809, "trial_type": "single-stim", "name": "KJ", "stimulus": "<p class='center-content'>Is this a smile?</p><p class='center-content'><img src='img/KJ_Dominance.jpg' height='410' width='730'></img></p>", "expr": "dominance", "time_elapsed": 62835, "internal_node_id": "0.0-1.0-60.0", "key_press": 81, "trial_index": 61, "gend": "female", "condition": 1}, {"rt": 904, "trial_type": "single-stim", "name": "Jourdan", "stimulus": "<p class='center-content'>Is this a smile?</p><p class='center-content'><img src='img/Jourdan_Affiliation.jpg' height='410' width='730'></img></p>", "expr": "affiliation", "time_elapsed": 63749, "internal_node_id": "0.0-1.0-61.0", "key_press": 81, "trial_index": 62, "gend": "male", "condition": 1}, {"rt": 677, "trial_type": "single-stim", "name": "KJ", "stimulus": "<p class='center-content'>Is this a smile?</p><p class='center-content'><img src='img/KJ_Reward.jpg' height='410' width='730'></img></p>", "expr": "reward", "time_elapsed": 64433, "internal_node_id": "0.0-1.0-62.0", "key_press": 81, "trial_index": 63, "gend": "female", "condition": 1}, {"rt": 850, "trial_type": "single-stim", "name": "Dmonte", "stimulus": "<p class='center-content'>Is this a smile?</p><p class='center-content'><img src='img/Dmonte.jpg' height='410' width='730'></img></p>", "expr": "neutral", "time_elapsed": 65292, "internal_node_id": "0.0-1.0-63.0", "key_press": 80, "trial_index": 64, "gend": "male", "condition": 1}, {"rt": 1653, "trial_type": "single-stim", "name": "Mary", "stimulus": "<p class='center-content'>Is this a smile?</p><p class='center-content'><img src='img/Mary_Disgust.jpg' height='410' width='730'></img></p>", "expr": "disgust", "time_elapsed": 66950, "internal_node_id": "0.0-1.0-64.0", "key_press": 81, "trial_index": 65, "gend": "female", "condition": 1}, {"rt": 1118, "trial_type": "single-stim", "name": "Joeseph", "stimulus": "<p class='center-content'>Is this a smile?</p><p class='center-content'><img src='img/Joeseph_Affiliation.jpg' height='410' width='730'></img></p>", "expr": "affiliation", "time_elapsed": 68086, "internal_node_id": "0.0-1.0-65.0", "key_press": 80, "trial_index": 66, "gend": "male", "condition": 1}, {"rt": 1112, "trial_type": "single-stim", "name": "Anna", "stimulus": "<p class='center-content'>Is this a smile?</p><p class='center-content'><img src='img/Anna_Reward.jpg' height='410' width='730'></img></p>", "expr": "reward", "time_elapsed": 69205, "internal_node_id": "0.0-1.0-66.0", "key_press": 81, "trial_index": 67, "gend": "female", "condition": 1}, {"rt": 834, "trial_type": "single-stim", "name": "Lulu", "stimulus": "<p class='center-content'>Is this a smile?</p><p class='center-content'><img src='img/Lulu_Disgust.jpg' height='410' width='730'></img></p>", "expr": "disgust", "time_elapsed": 70048, "internal_node_id": "0.0-1.0-67.0", "key_press": 80, "trial_index": 68, "gend": "female", "condition": 1}, {"rt": 805, "trial_type": "single-stim", "name": "Jessica", "stimulus": "<p class='center-content'>Is this a smile?</p><p class='center-content'><img src='img/Jessica_Dominance.jpg' height='410' width='730'></img></p>", "expr": "dominance", "time_elapsed": 70857, "internal_node_id": "0.0-1.0-68.0", "key_press": 81, "trial_index": 69, "gend": "female", "condition": 1}, {"rt": 826, "trial_type": "single-stim", "name": "Jessica", "stimulus": "<p class='center-content'>Is this a smile?</p><p class='center-content'><img src='img/Jessica.jpg' height='410' width='730'></img></p>", "expr": "neutral", "time_elapsed": 71693, "internal_node_id": "0.0-1.0-69.0", "key_press": 80, "trial_index": 70, "gend": "female", "condition": 1}, {"rt": 1287, "trial_type": "single-stim", "name": "Zach", "stimulus": "<p class='center-content'>Is this a smile?</p><p class='center-content'><img src='img/Zach_Dominance.jpg' height='410' width='730'></img></p>", "expr": "dominance", "time_elapsed": 72997, "internal_node_id": "0.0-1.0-70.0", "key_press": 80, "trial_index": 71, "gend": "male", "condition": 1}, {"rt": 1161, "trial_type": "single-stim", "name": "Jourdan", "stimulus": "<p class='center-content'>Is this a smile?</p><p class='center-content'><img src='img/Jourdan_Reward.jpg' height='410' width='730'></img></p>", "expr": "reward", "time_elapsed": 74162, "internal_node_id": "0.0-1.0-71.0", "key_press": 81, "trial_index": 72, "gend": "male", "condition": 1}, {"rt": 1127, "trial_type": "single-stim", "name": "Ashley", "stimulus": "<p class='center-content'>Is this a smile?</p><p class='center-content'><img src='img/Ashley_Reward.jpg' height='410' width='730'></img></p>", "expr": "reward", "time_elapsed": 75298, "internal_node_id": "0.0-1.0-72.0", "key_press": 81, "trial_index": 73, "gend": "female", "condition": 1}, {"rt": 1023, "trial_type": "single-stim", "name": "Lulu", "stimulus": "<p class='center-content'>Is this a smile?</p><p class='center-content'><img src='img/Lulu_Affiliation.jpg' height='410' width='730'></img></p>", "expr": "affiliation", "time_elapsed": 76330, "internal_node_id": "0.0-1.0-73.0", "key_press": 81, "trial_index": 74, "gend": "female", "condition": 1}, {"rt": 725, "trial_type": "single-stim", "name": "Jourdan", "stimulus": "<p class='center-content'>Is this a smile?</p><p class='center-content'><img src='img/Jourdan_Dominance.jpg' height='410' width='730'></img></p>", "expr": "dominance", "time_elapsed": 77058, "internal_node_id": "0.0-1.0-74.0", "key_press": 81, "trial_index": 75, "gend": "male", "condition": 1}, {"rt": 6087, "trial_type": "survey-multi-choice", "responses": "{\"Q0\":\"Female\",\"Q1\":\"Black/African American\",\"Q2\":\"Right\"}", "time_elapsed": 83170, "internal_node_id": "0.0-2.0", "trial_index": 76}, {"rt": 4566, "trial_type": "survey-text", "responses": "{\"Q0\":\"no\"}", "time_elapsed": 88747, "internal_node_id": "0.0-3.0", "trial_index": 77}, {"rt": 3071, "trial_type": "text", "time_elapsed": 92833, "internal_node_id": "0.0-4.0", "key_press": 13, "trial_index": 78}]}, "AcceptTime": "2017-12-05T21:57:44Z", "HITId": "36BTXXLZ2V8C323I6YLVO01NLPZ4RQ", "Assignment": "", "AssignmentStatus": "Approved", "SubmitTime": "2017-12-05T22:00:24Z"}