{"ApprovalTime": "2017-12-05T23:11:18Z", "AutoApprovalTime": "2017-12-05T23:11:09Z", "AssignmentId": "33FBRBDW6OZC3LZUQ7QE51EVS1AC8N", "WorkerId": "anon5", "answers": {"data": [{"rt": 12282, "trial_type": "text", "time_elapsed": 12285, "internal_node_id": "0.0-0.0", "key_press": 32, "trial_index": 0}, {"rt": 1212, "trial_type": "single-stim", "name": "Jourdan", "stimulus": "<p class='center-content'>Is this a smile?</p><p class='center-content'><img src='img/Jourdan_Dominance.jpg' height='410' width='730'></img></p>", "expr": "dominance", "time_elapsed": 15503, "internal_node_id": "0.0-1.0-0.0", "key_press": 80, "trial_index": 1, "gend": "male", "condition": 2}, {"rt": 853, "trial_type": "single-stim", "name": "Zach", "stimulus": "<p class='center-content'>Is this a smile?</p><p class='center-content'><img src='img/Zach_Reward.jpg' height='410' width='730'></img></p>", "expr": "reward", "time_elapsed": 16359, "internal_node_id": "0.0-1.0-1.0", "key_press": 80, "trial_index": 2, "gend": "male", "condition": 2}, {"rt": 798, "trial_type": "single-stim", "name": "Andrew", "stimulus": "<p class='center-content'>Is this a smile?</p><p class='center-content'><img src='img/Andrew.jpg' height='410' width='730'></img></p>", "expr": "neutral", "time_elapsed": 17160, "internal_node_id": "0.0-1.0-2.0", "key_press": 81, "trial_index": 3, "gend": "male", "condition": 2}, {"rt": 1133, "trial_type": "single-stim", "name": "Dmonte", "stimulus": "<p class='center-content'>Is this a smile?</p><p class='center-content'><img src='img/Dmonte_Dominance.jpg' height='410' width='730'></img></p>", "expr": "dominance", "time_elapsed": 18295, "internal_node_id": "0.0-1.0-3.0", "key_press": 80, "trial_index": 4, "gend": "male", "condition": 2}, {"rt": 639, "trial_type": "single-stim", "name": "Lulu", "stimulus": "<p class='center-content'>Is this a smile?</p><p class='center-content'><img src='img/Lulu_Reward.jpg' height='410' width='730'></img></p>", "expr": "reward", "time_elapsed": 18936, "internal_node_id": "0.0-1.0-4.0", "key_press": 80, "trial_index": 5, "gend": "female", "condition": 2}, {"rt": 653, "trial_type": "single-stim", "name": "Ashley", "stimulus": "<p class='center-content'>Is this a smile?</p><p class='center-content'><img src='img/Ashley_Affiliation.jpg' height='410' width='730'></img></p>", "expr": "affiliation", "time_elapsed": 19592, "internal_node_id": "0.0-1.0-5.0", "key_press": 80, "trial_index": 6, "gend": "female", "condition": 2}, {"rt": 862, "trial_type": "single-stim", "name": "Marcus", "stimulus": "<p class='center-content'>Is this a smile?</p><p class='center-content'><img src='img/Marcus.jpg' height='410' width='730'></img></p>", "expr": "neutral", "time_elapsed": 20457, "internal_node_id": "0.0-1.0-6.0", "key_press": 81, "trial_index": 7, "gend": "male", "condition": 2}, {"rt": 664, "trial_type": "single-stim", "name": "Mary", "stimulus": "<p class='center-content'>Is this a smile?</p><p class='center-content'><img src='img/Mary_Reward.jpg' height='410' width='730'></img></p>", "expr": "reward", "time_elapsed": 21122, "internal_node_id": "0.0-1.0-7.0", "key_press": 80, "trial_index": 8, "gend": "female", "condition": 2}, {"rt": 1970, "trial_type": "single-stim", "name": "Anna", "stimulus": "<p class='center-content'>Is this a smile?</p><p class='center-content'><img src='img/Anna.jpg' height='410' width='730'></img></p>", "expr": "neutral", "time_elapsed": 23095, "internal_node_id": "0.0-1.0-8.0", "key_press": 81, "trial_index": 9, "gend": "female", "condition": 2}, {"rt": 782, "trial_type": "single-stim", "name": "Ashley", "stimulus": "<p class='center-content'>Is this a smile?</p><p class='center-content'><img src='img/Ashley_Disgust.jpg' height='410' width='730'></img></p>", "expr": "disgust", "time_elapsed": 23879, "internal_node_id": "0.0-1.0-9.0", "key_press": 81, "trial_index": 10, "gend": "female", "condition": 2}, {"rt": 757, "trial_type": "single-stim", "name": "KJ", "stimulus": "<p class='center-content'>Is this a smile?</p><p class='center-content'><img src='img/KJ_Affiliation.jpg' height='410' width='730'></img></p>", "expr": "affiliation", "time_elapsed": 24638, "internal_node_id": "0.0-1.0-10.0", "key_press": 80, "trial_index": 11, "gend": "female", "condition": 2}, {"rt": 1319, "trial_type": "single-stim", "name": "Mary", "stimulus": "<p class='center-content'>Is this a smile?</p><p class='center-content'><img src='img/Mary_Dominance.jpg' height='410' width='730'></img></p>", "expr": "dominance", "time_elapsed": 25960, "internal_node_id": "0.0-1.0-11.0", "key_press": 80, "trial_index": 12, "gend": "female", "condition": 2}, {"rt": 940, "trial_type": "single-stim", "name": "Zach", "stimulus": "<p class='center-content'>Is this a smile?</p><p class='center-content'><img src='img/Zach.jpg' height='410' width='730'></img></p>", "expr": "neutral", "time_elapsed": 26902, "internal_node_id": "0.0-1.0-12.0", "key_press": 81, "trial_index": 13, "gend": "male", "condition": 2}, {"rt": 1929, "trial_type": "single-stim", "name": "Jessica", "stimulus": "<p class='center-content'>Is this a smile?</p><p class='center-content'><img src='img/Jessica.jpg' height='410' width='730'></img></p>", "expr": "neutral", "time_elapsed": 28833, "internal_node_id": "0.0-1.0-13.0", "key_press": 81, "trial_index": 14, "gend": "female", "condition": 2}, {"rt": 659, "trial_type": "single-stim", "name": "Joeseph", "stimulus": "<p class='center-content'>Is this a smile?</p><p class='center-content'><img src='img/Joeseph_Reward.jpg' height='410' width='730'></img></p>", "expr": "reward", "time_elapsed": 29495, "internal_node_id": "0.0-1.0-14.0", "key_press": 80, "trial_index": 15, "gend": "male", "condition": 2}, {"rt": 1670, "trial_type": "single-stim", "name": "Lulu", "stimulus": "<p class='center-content'>Is this a smile?</p><p class='center-content'><img src='img/Lulu.jpg' height='410' width='730'></img></p>", "expr": "neutral", "time_elapsed": 31168, "internal_node_id": "0.0-1.0-15.0", "key_press": 81, "trial_index": 16, "gend": "female", "condition": 2}, {"rt": 721, "trial_type": "single-stim", "name": "Lulu", "stimulus": "<p class='center-content'>Is this a smile?</p><p class='center-content'><img src='img/Lulu_Dominance.jpg' height='410' width='730'></img></p>", "expr": "dominance", "time_elapsed": 31891, "internal_node_id": "0.0-1.0-16.0", "key_press": 80, "trial_index": 17, "gend": "female", "condition": 2}, {"rt": 740, "trial_type": "single-stim", "name": "Andrew", "stimulus": "<p class='center-content'>Is this a smile?</p><p class='center-content'><img src='img/Andrew_Disgust.jpg' height='410' width='730'></img></p>", "expr": "disgust", "time_elapsed": 32634, "internal_node_id": "0.0-1.0-17.0", "key_press": 81, "trial_index": 18, "gend": "male", "condition": 2}, {"rt": 1283, "trial_type": "single-stim", "name": "Naomi", "stimulus": "<p class='center-content'>Is this a smile?</p><p class='center-content'><img src='img/Naomi_DIsgust.jpg' height='410' width='730'></img></p>", "expr": "disgust", "time_elapsed": 33919, "internal_node_id": "0.0-1.0-18.0", "key_press": 81, "trial_index": 19, "gend": "female", "condition": 2}, {"rt": 654, "trial_type": "single-stim", "name": "Ashley", "stimulus": "<p class='center-content'>Is this a smile?</p><p class='center-content'><img src='img/Ashley.jpg' height='410' width='730'></img></p>", "expr": "neutral", "time_elapsed": 34575, "internal_node_id": "0.0-1.0-19.0", "key_press": 81, "trial_index": 20, "gend": "female", "condition": 2}, {"rt": 577, "trial_type": "single-stim", "name": "Ashley", "stimulus": "<p class='center-content'>Is this a smile?</p><p class='center-content'><img src='img/Ashley_Reward.jpg' height='410' width='730'></img></p>", "expr": "reward", "time_elapsed": 35154, "internal_node_id": "0.0-1.0-20.0", "key_press": 80, "trial_index": 21, "gend": "female", "condition": 2}, {"rt": 716, "trial_type": "single-stim", "name": "Marcus", "stimulus": "<p class='center-content'>Is this a smile?</p><p class='center-content'><img src='img/Marcus_Affiliation.jpg' height='410' width='730'></img></p>", "expr": "affiliation", "time_elapsed": 35872, "internal_node_id": "0.0-1.0-21.0", "key_press": 80, "trial_index": 22, "gend": "male", "condition": 2}, {"rt": 568, "trial_type": "single-stim", "name": "Anthony", "stimulus": "<p class='center-content'>Is this a smile?</p><p class='center-content'><img src='img/Anthony_Disgust.jpg' height='410' width='730'></img></p>", "expr": "disgust", "time_elapsed": 36442, "internal_node_id": "0.0-1.0-22.0", "key_press": 81, "trial_index": 23, "gend": "male", "condition": 2}, {"rt": 631, "trial_type": "single-stim", "name": "Jourdan", "stimulus": "<p class='center-content'>Is this a smile?</p><p class='center-content'><img src='img/Jourdan_Reward.jpg' height='410' width='730'></img></p>", "expr": "reward", "time_elapsed": 37075, "internal_node_id": "0.0-1.0-23.0", "key_press": 80, "trial_index": 24, "gend": "male", "condition": 2}, {"rt": 543, "trial_type": "single-stim", "name": "Andrew", "stimulus": "<p class='center-content'>Is this a smile?</p><p class='center-content'><img src='img/Andrew_Reward.jpg' height='410' width='730'></img></p>", "expr": "reward", "time_elapsed": 37621, "internal_node_id": "0.0-1.0-24.0", "key_press": 80, "trial_index": 25, "gend": "male", "condition": 2}, {"rt": 789, "trial_type": "single-stim", "name": "KJ", "stimulus": "<p class='center-content'>Is this a smile?</p><p class='center-content'><img src='img/KJ_Dominance.jpg' height='410' width='730'></img></p>", "expr": "dominance", "time_elapsed": 38412, "internal_node_id": "0.0-1.0-25.0", "key_press": 80, "trial_index": 26, "gend": "female", "condition": 2}, {"rt": 541, "trial_type": "single-stim", "name": "Anna", "stimulus": "<p class='center-content'>Is this a smile?</p><p class='center-content'><img src='img/Anna_Reward.jpg' height='410' width='730'></img></p>", "expr": "reward", "time_elapsed": 38955, "internal_node_id": "0.0-1.0-26.0", "key_press": 80, "trial_index": 27, "gend": "female", "condition": 2}, {"rt": 683, "trial_type": "single-stim", "name": "Lulu", "stimulus": "<p class='center-content'>Is this a smile?</p><p class='center-content'><img src='img/Lulu_Affiliation.jpg' height='410' width='730'></img></p>", "expr": "affiliation", "time_elapsed": 39640, "internal_node_id": "0.0-1.0-27.0", "key_press": 80, "trial_index": 28, "gend": "female", "condition": 2}, {"rt": 750, "trial_type": "single-stim", "name": "Zach", "stimulus": "<p class='center-content'>Is this a smile?</p><p class='center-content'><img src='img/Zach_Disgust.jpg' height='410' width='730'></img></p>", "expr": "disgust", "time_elapsed": 40393, "internal_node_id": "0.0-1.0-28.0", "key_press": 81, "trial_index": 29, "gend": "male", "condition": 2}, {"rt": 745, "trial_type": "single-stim", "name": "Naomi", "stimulus": "<p class='center-content'>Is this a smile?</p><p class='center-content'><img src='img/Naomi_Affiliation.jpg' height='410' width='730'></img></p>", "expr": "affiliation", "time_elapsed": 41140, "internal_node_id": "0.0-1.0-29.0", "key_press": 80, "trial_index": 30, "gend": "female", "condition": 2}, {"rt": 740, "trial_type": "single-stim", "name": "Marcus", "stimulus": "<p class='center-content'>Is this a smile?</p><p class='center-content'><img src='img/Marcus_Dominance.jpg' height='410' width='730'></img></p>", "expr": "dominance", "time_elapsed": 41883, "internal_node_id": "0.0-1.0-30.0", "key_press": 80, "trial_index": 31, "gend": "male", "condition": 2}, {"rt": 700, "trial_type": "single-stim", "name": "Anthony", "stimulus": "<p class='center-content'>Is this a smile?</p><p class='center-content'><img src='img/Anthony_Affiliation.jpg' height='410' width='730'></img></p>", "expr": "affiliation", "time_elapsed": 42586, "internal_node_id": "0.0-1.0-31.0", "key_press": 81, "trial_index": 32, "gend": "male", "condition": 2}, {"rt": 1295, "trial_type": "single-stim", "name": "Joeseph", "stimulus": "<p class='center-content'>Is this a smile?</p><p class='center-content'><img src='img/Joeseph_Disgust.jpg' height='410' width='730'></img></p>", "expr": "disgust", "time_elapsed": 43883, "internal_node_id": "0.0-1.0-32.0", "key_press": 81, "trial_index": 33, "gend": "male", "condition": 2}, {"rt": 847, "trial_type": "single-stim", "name": "Dmonte", "stimulus": "<p class='center-content'>Is this a smile?</p><p class='center-content'><img src='img/Dmonte_Affiliation.jpg' height='410' width='730'></img></p>", "expr": "affiliation", "time_elapsed": 44733, "internal_node_id": "0.0-1.0-33.0", "key_press": 80, "trial_index": 34, "gend": "male", "condition": 2}, {"rt": 638, "trial_type": "single-stim", "name": "Jessica", "stimulus": "<p class='center-content'>Is this a smile?</p><p class='center-content'><img src='img/Jessica_Affiliation.jpg' height='410' width='730'></img></p>", "expr": "affiliation", "time_elapsed": 45373, "internal_node_id": "0.0-1.0-34.0", "key_press": 80, "trial_index": 35, "gend": "female", "condition": 2}, {"rt": 805, "trial_type": "single-stim", "name": "Jourdan", "stimulus": "<p class='center-content'>Is this a smile?</p><p class='center-content'><img src='img/Jourdan.jpg' height='410' width='730'></img></p>", "expr": "neutral", "time_elapsed": 46181, "internal_node_id": "0.0-1.0-35.0", "key_press": 81, "trial_index": 36, "gend": "male", "condition": 2}, {"rt": 647, "trial_type": "single-stim", "name": "Maurice", "stimulus": "<p class='center-content'>Is this a smile?</p><p class='center-content'><img src='img/Maurice_Affiliation.jpg' height='410' width='730'></img></p>", "expr": "affiliation", "time_elapsed": 46831, "internal_node_id": "0.0-1.0-36.0", "key_press": 80, "trial_index": 37, "gend": "male", "condition": 2}, {"rt": 816, "trial_type": "single-stim", "name": "Anna", "stimulus": "<p class='center-content'>Is this a smile?</p><p class='center-content'><img src='img/Anna_Disgust.jpg' height='410' width='730'></img></p>", "expr": "disgust", "time_elapsed": 47649, "internal_node_id": "0.0-1.0-37.0", "key_press": 81, "trial_index": 38, "gend": "female", "condition": 2}, {"rt": 1542, "trial_type": "single-stim", "name": "Naomi", "stimulus": "<p class='center-content'>Is this a smile?</p><p class='center-content'><img src='img/Naomi.jpg' height='410' width='730'></img></p>", "expr": "neutral", "time_elapsed": 49193, "internal_node_id": "0.0-1.0-38.0", "key_press": 81, "trial_index": 39, "gend": "female", "condition": 2}, {"rt": 664, "trial_type": "single-stim", "name": "Andrew", "stimulus": "<p class='center-content'>Is this a smile?</p><p class='center-content'><img src='img/Andrew_Affiliation.jpg' height='410' width='730'></img></p>", "expr": "affiliation", "time_elapsed": 49860, "internal_node_id": "0.0-1.0-39.0", "key_press": 80, "trial_index": 40, "gend": "male", "condition": 2}, {"rt": 718, "trial_type": "single-stim", "name": "KJ", "stimulus": "<p class='center-content'>Is this a smile?</p><p class='center-content'><img src='img/KJ_Disgust.jpg' height='410' width='730'></img></p>", "expr": "disgust", "time_elapsed": 50581, "internal_node_id": "0.0-1.0-40.0", "key_press": 81, "trial_index": 41, "gend": "female", "condition": 2}, {"rt": 907, "trial_type": "single-stim", "name": "Joeseph", "stimulus": "<p class='center-content'>Is this a smile?</p><p class='center-content'><img src='img/Joeseph_Affiliation.jpg' height='410' width='730'></img></p>", "expr": "affiliation", "time_elapsed": 51491, "internal_node_id": "0.0-1.0-41.0", "key_press": 80, "trial_index": 42, "gend": "male", "condition": 2}, {"rt": 777, "trial_type": "single-stim", "name": "Joeseph", "stimulus": "<p class='center-content'>Is this a smile?</p><p class='center-content'><img src='img/Joeseph_Dominance.jpg' height='410' width='730'></img></p>", "expr": "dominance", "time_elapsed": 52271, "internal_node_id": "0.0-1.0-42.0", "key_press": 81, "trial_index": 43, "gend": "male", "condition": 2}, {"rt": 776, "trial_type": "single-stim", "name": "Andrew", "stimulus": "<p class='center-content'>Is this a smile?</p><p class='center-content'><img src='img/Andrew_Dominance.jpg' height='410' width='730'></img></p>", "expr": "dominance", "time_elapsed": 53049, "internal_node_id": "0.0-1.0-43.0", "key_press": 80, "trial_index": 44, "gend": "male", "condition": 2}, {"rt": 1852, "trial_type": "single-stim", "name": "Mary", "stimulus": "<p class='center-content'>Is this a smile?</p><p class='center-content'><img src='img/Mary.jpg' height='410' width='730'></img></p>", "expr": "neutral", "time_elapsed": 54903, "internal_node_id": "0.0-1.0-44.0", "key_press": 81, "trial_index": 45, "gend": "female", "condition": 2}, {"rt": 687, "trial_type": "single-stim", "name": "Anthony", "stimulus": "<p class='center-content'>Is this a smile?</p><p class='center-content'><img src='img/Anthony_Reward.jpg' height='410' width='730'></img></p>", "expr": "reward", "time_elapsed": 55593, "internal_node_id": "0.0-1.0-45.0", "key_press": 80, "trial_index": 46, "gend": "male", "condition": 2}, {"rt": 1512, "trial_type": "single-stim", "name": "Dmonte", "stimulus": "<p class='center-content'>Is this a smile?</p><p class='center-content'><img src='img/Dmonte.jpg' height='410' width='730'></img></p>", "expr": "neutral", "time_elapsed": 57108, "internal_node_id": "0.0-1.0-46.0", "key_press": 81, "trial_index": 47, "gend": "male", "condition": 2}, {"rt": 671, "trial_type": "single-stim", "name": "Naomi", "stimulus": "<p class='center-content'>Is this a smile?</p><p class='center-content'><img src='img/Naomi_Reward.jpg' height='410' width='730'></img></p>", "expr": "reward", "time_elapsed": 57782, "internal_node_id": "0.0-1.0-47.0", "key_press": 80, "trial_index": 48, "gend": "female", "condition": 2}, {"rt": 2150, "trial_type": "single-stim", "name": "Zach", "stimulus": "<p class='center-content'>Is this a smile?</p><p class='center-content'><img src='img/Zach_Dominance.jpg' height='410' width='730'></img></p>", "expr": "dominance", "time_elapsed": 59935, "internal_node_id": "0.0-1.0-48.0", "key_press": 81, "trial_index": 49, "gend": "male", "condition": 2}, {"rt": 1003, "trial_type": "single-stim", "name": "Maurice", "stimulus": "<p class='center-content'>Is this a smile?</p><p class='center-content'><img src='img/Maurice.jpg' height='410' width='730'></img></p>", "expr": "neutral", "time_elapsed": 60940, "internal_node_id": "0.0-1.0-49.0", "key_press": 81, "trial_index": 50, "gend": "male", "condition": 2}, {"rt": 829, "trial_type": "single-stim", "name": "Ashley", "stimulus": "<p class='center-content'>Is this a smile?</p><p class='center-content'><img src='img/Ashley_Dominance.jpg' height='410' width='730'></img></p>", "expr": "dominance", "time_elapsed": 61771, "internal_node_id": "0.0-1.0-50.0", "key_press": 80, "trial_index": 51, "gend": "female", "condition": 2}, {"rt": 869, "trial_type": "single-stim", "name": "Jessica", "stimulus": "<p class='center-content'>Is this a smile?</p><p class='center-content'><img src='img/Jessica_Reward.jpg' height='410' width='730'></img></p>", "expr": "reward", "time_elapsed": 62642, "internal_node_id": "0.0-1.0-51.0", "key_press": 80, "trial_index": 52, "gend": "female", "condition": 2}, {"rt": 1404, "trial_type": "single-stim", "name": "KJ", "stimulus": "<p class='center-content'>Is this a smile?</p><p class='center-content'><img src='img/KJ.jpg' height='410' width='730'></img></p>", "expr": "neutral", "time_elapsed": 64048, "internal_node_id": "0.0-1.0-52.0", "key_press": 81, "trial_index": 53, "gend": "female", "condition": 2}, {"rt": 909, "trial_type": "single-stim", "name": "Anna", "stimulus": "<p class='center-content'>Is this a smile?</p><p class='center-content'><img src='img/Anna_Dominance.jpg' height='410' width='730'></img></p>", "expr": "dominance", "time_elapsed": 64960, "internal_node_id": "0.0-1.0-53.0", "key_press": 80, "trial_index": 54, "gend": "female", "condition": 2}, {"rt": 883, "trial_type": "single-stim", "name": "Mary", "stimulus": "<p class='center-content'>Is this a smile?</p><p class='center-content'><img src='img/Mary_Affiliation.jpg' height='410' width='730'></img></p>", "expr": "affiliation", "time_elapsed": 65845, "internal_node_id": "0.0-1.0-54.0", "key_press": 80, "trial_index": 55, "gend": "female", "condition": 2}, {"rt": 760, "trial_type": "single-stim", "name": "Marcus", "stimulus": "<p class='center-content'>Is this a smile?</p><p class='center-content'><img src='img/Marcus_Reward.jpg' height='410' width='730'></img></p>", "expr": "reward", "time_elapsed": 66607, "internal_node_id": "0.0-1.0-55.0", "key_press": 80, "trial_index": 56, "gend": "male", "condition": 2}, {"rt": 751, "trial_type": "single-stim", "name": "Zach", "stimulus": "<p class='center-content'>Is this a smile?</p><p class='center-content'><img src='img/Zach_Affiliation.jpg' height='410' width='730'></img></p>", "expr": "affiliation", "time_elapsed": 67361, "internal_node_id": "0.0-1.0-56.0", "key_press": 80, "trial_index": 57, "gend": "male", "condition": 2}, {"rt": 1179, "trial_type": "single-stim", "name": "Jessica", "stimulus": "<p class='center-content'>Is this a smile?</p><p class='center-content'><img src='img/Jessica_Dominance.jpg' height='410' width='730'></img></p>", "expr": "dominance", "time_elapsed": 68542, "internal_node_id": "0.0-1.0-57.0", "key_press": 80, "trial_index": 58, "gend": "female", "condition": 2}, {"rt": 674, "trial_type": "single-stim", "name": "Anna", "stimulus": "<p class='center-content'>Is this a smile?</p><p class='center-content'><img src='img/Anna_Affiliation.jpg' height='410' width='730'></img></p>", "expr": "affiliation", "time_elapsed": 69218, "internal_node_id": "0.0-1.0-58.0", "key_press": 80, "trial_index": 59, "gend": "female", "condition": 2}, {"rt": 1100, "trial_type": "single-stim", "name": "Mary", "stimulus": "<p class='center-content'>Is this a smile?</p><p class='center-content'><img src='img/Mary_Disgust.jpg' height='410' width='730'></img></p>", "expr": "disgust", "time_elapsed": 70320, "internal_node_id": "0.0-1.0-59.0", "key_press": 81, "trial_index": 60, "gend": "female", "condition": 2}, {"rt": 864, "trial_type": "single-stim", "name": "Jessica", "stimulus": "<p class='center-content'>Is this a smile?</p><p class='center-content'><img src='img/Jessica_Disgust.jpg' height='410' width='730'></img></p>", "expr": "disgust", "time_elapsed": 71187, "internal_node_id": "0.0-1.0-60.0", "key_press": 81, "trial_index": 61, "gend": "female", "condition": 2}, {"rt": 794, "trial_type": "single-stim", "name": "Dmonte", "stimulus": "<p class='center-content'>Is this a smile?</p><p class='center-content'><img src='img/Dmonte_Disgust.jpg' height='410' width='730'></img></p>", "expr": "disgust", "time_elapsed": 71984, "internal_node_id": "0.0-1.0-61.0", "key_press": 81, "trial_index": 62, "gend": "male", "condition": 2}, {"rt": 1324, "trial_type": "single-stim", "name": "Dmonte", "stimulus": "<p class='center-content'>Is this a smile?</p><p class='center-content'><img src='img/Dmonte_Reward.jpg' height='410' width='730'></img></p>", "expr": "reward", "time_elapsed": 73310, "internal_node_id": "0.0-1.0-62.0", "key_press": 80, "trial_index": 63, "gend": "male", "condition": 2}, {"rt": 859, "trial_type": "single-stim", "name": "Maurice", "stimulus": "<p class='center-content'>Is this a smile?</p><p class='center-content'><img src='img/Maurice_Disgust.jpg' height='410' width='730'></img></p>", "expr": "disgust", "time_elapsed": 74171, "internal_node_id": "0.0-1.0-63.0", "key_press": 81, "trial_index": 64, "gend": "male", "condition": 2}, {"rt": 779, "trial_type": "single-stim", "name": "Jourdan", "stimulus": "<p class='center-content'>Is this a smile?</p><p class='center-content'><img src='img/Jourdan_Affiliation.jpg' height='410' width='730'></img></p>", "expr": "affiliation", "time_elapsed": 74953, "internal_node_id": "0.0-1.0-64.0", "key_press": 80, "trial_index": 65, "gend": "male", "condition": 2}, {"rt": 732, "trial_type": "single-stim", "name": "Naomi", "stimulus": "<p class='center-content'>Is this a smile?</p><p class='center-content'><img src='img/Naomi_Dominance.jpg' height='410' width='730'></img></p>", "expr": "dominance", "time_elapsed": 75687, "internal_node_id": "0.0-1.0-65.0", "key_press": 80, "trial_index": 66, "gend": "female", "condition": 2}, {"rt": 626, "trial_type": "single-stim", "name": "Maurice", "stimulus": "<p class='center-content'>Is this a smile?</p><p class='center-content'><img src='img/Maurice_Reward.jpg' height='410' width='730'></img></p>", "expr": "reward", "time_elapsed": 76315, "internal_node_id": "0.0-1.0-66.0", "key_press": 80, "trial_index": 67, "gend": "male", "condition": 2}, {"rt": 808, "trial_type": "single-stim", "name": "Maurice", "stimulus": "<p class='center-content'>Is this a smile?</p><p class='center-content'><img src='img/Maurice_Dominance.jpg' height='410' width='730'></img></p>", "expr": "dominance", "time_elapsed": 77126, "internal_node_id": "0.0-1.0-67.0", "key_press": 80, "trial_index": 68, "gend": "male", "condition": 2}, {"rt": 898, "trial_type": "single-stim", "name": "Lulu", "stimulus": "<p class='center-content'>Is this a smile?</p><p class='center-content'><img src='img/Lulu_Disgust.jpg' height='410' width='730'></img></p>", "expr": "disgust", "time_elapsed": 78026, "internal_node_id": "0.0-1.0-68.0", "key_press": 81, "trial_index": 69, "gend": "female", "condition": 2}, {"rt": 1002, "trial_type": "single-stim", "name": "Anthony", "stimulus": "<p class='center-content'>Is this a smile?</p><p class='center-content'><img src='img/Anthony.jpg' height='410' width='730'></img></p>", "expr": "neutral", "time_elapsed": 79030, "internal_node_id": "0.0-1.0-69.0", "key_press": 81, "trial_index": 70, "gend": "male", "condition": 2}, {"rt": 775, "trial_type": "single-stim", "name": "Anthony", "stimulus": "<p class='center-content'>Is this a smile?</p><p class='center-content'><img src='img/Anthony_Dominance.jpg' height='410' width='730'></img></p>", "expr": "dominance", "time_elapsed": 79807, "internal_node_id": "0.0-1.0-70.0", "key_press": 81, "trial_index": 71, "gend": "male", "condition": 2}, {"rt": 1304, "trial_type": "single-stim", "name": "Marcus", "stimulus": "<p class='center-content'>Is this a smile?</p><p class='center-content'><img src='img/Marcus_Disgust.jpg' height='410' width='730'></img></p>", "expr": "disgust", "time_elapsed": 81114, "internal_node_id": "0.0-1.0-71.0", "key_press": 81, "trial_index": 72, "gend": "male", "condition": 2}, {"rt": 680, "trial_type": "single-stim", "name": "KJ", "stimulus": "<p class='center-content'>Is this a smile?</p><p class='center-content'><img src='img/KJ_Reward.jpg' height='410' width='730'></img></p>", "expr": "reward", "time_elapsed": 81797, "internal_node_id": "0.0-1.0-72.0", "key_press": 80, "trial_index": 73, "gend": "female", "condition": 2}, {"rt": 815, "trial_type": "single-stim", "name": "Joeseph", "stimulus": "<p class='center-content'>Is this a smile?</p><p class='center-content'><img src='img/Joeseph.jpg' height='410' width='730'></img></p>", "expr": "neutral", "time_elapsed": 82614, "internal_node_id": "0.0-1.0-73.0", "key_press": 81, "trial_index": 74, "gend": "male", "condition": 2}, {"rt": 720, "trial_type": "single-stim", "name": "Jourdan", "stimulus": "<p class='center-content'>Is this a smile?</p><p class='center-content'><img src='img/Jourdan_Disgust.jpg' height='410' width='730'></img></p>", "expr": "disgust", "time_elapsed": 83336, "internal_node_id": "0.0-1.0-74.0", "key_press": 81, "trial_index": 75, "gend": "male", "condition": 2}, {"rt": 6268, "trial_type": "survey-multi-choice", "responses": "{\"Q0\":\"Male\",\"Q1\":\"White/Caucasian/European American\",\"Q2\":\"Right\"}", "time_elapsed": 89617, "internal_node_id": "0.0-2.0", "trial_index": 76}, {"rt": 2656, "trial_type": "survey-text", "responses": "{\"Q0\":\"no\"}", "time_elapsed": 93276, "internal_node_id": "0.0-3.0", "trial_index": 77}, {"rt": 2357, "trial_type": "text", "time_elapsed": 96635, "internal_node_id": "0.0-4.0", "key_press": 32, "trial_index": 78}]}, "AcceptTime": "2017-12-05T23:04:11Z", "HITId": "3GMLHYZ0LEXKH19JZZ4790SENP6YUD", "Assignment": "", "AssignmentStatus": "Approved", "SubmitTime": "2017-12-05T23:06:09Z"}