{"ApprovalTime": "2017-12-06T00:22:18Z", "AutoApprovalTime": "2017-12-06T00:21:53Z", "AssignmentId": "3OLF68YTN91XPLCJE70T9Y5TF31AF1", "WorkerId": "anon33", "answers": {"data": [{"rt": 15233, "trial_type": "text", "time_elapsed": 15238, "internal_node_id": "0.0-0.0", "key_press": 32, "trial_index": 0}, {"rt": 3804, "trial_type": "single-stim", "name": "Marcus", "stimulus": "<p class='center-content'>Is this a smile?</p><p class='center-content'><img src='img/Marcus_Dominance.jpg' height='410' width='730'></img></p>", "expr": "dominance", "time_elapsed": 21049, "internal_node_id": "0.0-1.0-0.0", "key_press": 80, "trial_index": 1, "gend": "male", "condition": 2}, {"rt": 1121, "trial_type": "single-stim", "name": "Marcus", "stimulus": "<p class='center-content'>Is this a smile?</p><p class='center-content'><img src='img/Marcus.jpg' height='410' width='730'></img></p>", "expr": "neutral", "time_elapsed": 22175, "internal_node_id": "0.0-1.0-1.0", "key_press": 81, "trial_index": 2, "gend": "male", "condition": 2}, {"rt": 2237, "trial_type": "single-stim", "name": "Naomi", "stimulus": "<p class='center-content'>Is this a smile?</p><p class='center-content'><img src='img/Naomi_DIsgust.jpg' height='410' width='730'></img></p>", "expr": "disgust", "time_elapsed": 24419, "internal_node_id": "0.0-1.0-2.0", "key_press": 80, "trial_index": 3, "gend": "female", "condition": 2}, {"rt": 1062, "trial_type": "single-stim", "name": "Jourdan", "stimulus": "<p class='center-content'>Is this a smile?</p><p class='center-content'><img src='img/Jourdan.jpg' height='410' width='730'></img></p>", "expr": "neutral", "time_elapsed": 25484, "internal_node_id": "0.0-1.0-3.0", "key_press": 81, "trial_index": 4, "gend": "male", "condition": 2}, {"rt": 1162, "trial_type": "single-stim", "name": "Jourdan", "stimulus": "<p class='center-content'>Is this a smile?</p><p class='center-content'><img src='img/Jourdan_Dominance.jpg' height='410' width='730'></img></p>", "expr": "dominance", "time_elapsed": 26649, "internal_node_id": "0.0-1.0-4.0", "key_press": 80, "trial_index": 5, "gend": "male", "condition": 2}, {"rt": 1136, "trial_type": "single-stim", "name": "Jessica", "stimulus": "<p class='center-content'>Is this a smile?</p><p class='center-content'><img src='img/Jessica_Affiliation.jpg' height='410' width='730'></img></p>", "expr": "affiliation", "time_elapsed": 27789, "internal_node_id": "0.0-1.0-5.0", "key_press": 80, "trial_index": 6, "gend": "female", "condition": 2}, {"rt": 1591, "trial_type": "single-stim", "name": "Andrew", "stimulus": "<p class='center-content'>Is this a smile?</p><p class='center-content'><img src='img/Andrew_Disgust.jpg' height='410' width='730'></img></p>", "expr": "disgust", "time_elapsed": 29384, "internal_node_id": "0.0-1.0-6.0", "key_press": 81, "trial_index": 7, "gend": "male", "condition": 2}, {"rt": 1061, "trial_type": "single-stim", "name": "Anna", "stimulus": "<p class='center-content'>Is this a smile?</p><p class='center-content'><img src='img/Anna.jpg' height='410' width='730'></img></p>", "expr": "neutral", "time_elapsed": 30448, "internal_node_id": "0.0-1.0-7.0", "key_press": 81, "trial_index": 8, "gend": "female", "condition": 2}, {"rt": 771, "trial_type": "single-stim", "name": "Mary", "stimulus": "<p class='center-content'>Is this a smile?</p><p class='center-content'><img src='img/Mary_Dominance.jpg' height='410' width='730'></img></p>", "expr": "dominance", "time_elapsed": 31223, "internal_node_id": "0.0-1.0-8.0", "key_press": 81, "trial_index": 9, "gend": "female", "condition": 2}, {"rt": 659, "trial_type": "single-stim", "name": "Jessica", "stimulus": "<p class='center-content'>Is this a smile?</p><p class='center-content'><img src='img/Jessica.jpg' height='410' width='730'></img></p>", "expr": "neutral", "time_elapsed": 31886, "internal_node_id": "0.0-1.0-9.0", "key_press": 81, "trial_index": 10, "gend": "female", "condition": 2}, {"rt": 1341, "trial_type": "single-stim", "name": "Naomi", "stimulus": "<p class='center-content'>Is this a smile?</p><p class='center-content'><img src='img/Naomi.jpg' height='410' width='730'></img></p>", "expr": "neutral", "time_elapsed": 33231, "internal_node_id": "0.0-1.0-10.0", "key_press": 80, "trial_index": 11, "gend": "female", "condition": 2}, {"rt": 970, "trial_type": "single-stim", "name": "Mary", "stimulus": "<p class='center-content'>Is this a smile?</p><p class='center-content'><img src='img/Mary_Reward.jpg' height='410' width='730'></img></p>", "expr": "reward", "time_elapsed": 34204, "internal_node_id": "0.0-1.0-11.0", "key_press": 80, "trial_index": 12, "gend": "female", "condition": 2}, {"rt": 1573, "trial_type": "single-stim", "name": "Joeseph", "stimulus": "<p class='center-content'>Is this a smile?</p><p class='center-content'><img src='img/Joeseph_Affiliation.jpg' height='410' width='730'></img></p>", "expr": "affiliation", "time_elapsed": 35780, "internal_node_id": "0.0-1.0-12.0", "key_press": 81, "trial_index": 13, "gend": "male", "condition": 2}, {"rt": 1095, "trial_type": "single-stim", "name": "Joeseph", "stimulus": "<p class='center-content'>Is this a smile?</p><p class='center-content'><img src='img/Joeseph.jpg' height='410' width='730'></img></p>", "expr": "neutral", "time_elapsed": 36879, "internal_node_id": "0.0-1.0-13.0", "key_press": 81, "trial_index": 14, "gend": "male", "condition": 2}, {"rt": 1118, "trial_type": "single-stim", "name": "Zach", "stimulus": "<p class='center-content'>Is this a smile?</p><p class='center-content'><img src='img/Zach.jpg' height='410' width='730'></img></p>", "expr": "neutral", "time_elapsed": 38005, "internal_node_id": "0.0-1.0-14.0", "key_press": 81, "trial_index": 15, "gend": "male", "condition": 2}, {"rt": 1142, "trial_type": "single-stim", "name": "Joeseph", "stimulus": "<p class='center-content'>Is this a smile?</p><p class='center-content'><img src='img/Joeseph_Dominance.jpg' height='410' width='730'></img></p>", "expr": "dominance", "time_elapsed": 39151, "internal_node_id": "0.0-1.0-15.0", "key_press": 81, "trial_index": 16, "gend": "male", "condition": 2}, {"rt": 2099, "trial_type": "single-stim", "name": "Jourdan", "stimulus": "<p class='center-content'>Is this a smile?</p><p class='center-content'><img src='img/Jourdan_Disgust.jpg' height='410' width='730'></img></p>", "expr": "disgust", "time_elapsed": 41254, "internal_node_id": "0.0-1.0-16.0", "key_press": 81, "trial_index": 17, "gend": "male", "condition": 2}, {"rt": 1050, "trial_type": "single-stim", "name": "Anthony", "stimulus": "<p class='center-content'>Is this a smile?</p><p class='center-content'><img src='img/Anthony.jpg' height='410' width='730'></img></p>", "expr": "neutral", "time_elapsed": 42308, "internal_node_id": "0.0-1.0-17.0", "key_press": 81, "trial_index": 18, "gend": "male", "condition": 2}, {"rt": 991, "trial_type": "single-stim", "name": "Zach", "stimulus": "<p class='center-content'>Is this a smile?</p><p class='center-content'><img src='img/Zach_Affiliation.jpg' height='410' width='730'></img></p>", "expr": "affiliation", "time_elapsed": 43303, "internal_node_id": "0.0-1.0-18.0", "key_press": 80, "trial_index": 19, "gend": "male", "condition": 2}, {"rt": 1116, "trial_type": "single-stim", "name": "Lulu", "stimulus": "<p class='center-content'>Is this a smile?</p><p class='center-content'><img src='img/Lulu_Affiliation.jpg' height='410' width='730'></img></p>", "expr": "affiliation", "time_elapsed": 44422, "internal_node_id": "0.0-1.0-19.0", "key_press": 80, "trial_index": 20, "gend": "female", "condition": 2}, {"rt": 1101, "trial_type": "single-stim", "name": "Andrew", "stimulus": "<p class='center-content'>Is this a smile?</p><p class='center-content'><img src='img/Andrew_Affiliation.jpg' height='410' width='730'></img></p>", "expr": "affiliation", "time_elapsed": 45527, "internal_node_id": "0.0-1.0-20.0", "key_press": 80, "trial_index": 21, "gend": "male", "condition": 2}, {"rt": 914, "trial_type": "single-stim", "name": "Jessica", "stimulus": "<p class='center-content'>Is this a smile?</p><p class='center-content'><img src='img/Jessica_Reward.jpg' height='410' width='730'></img></p>", "expr": "reward", "time_elapsed": 46444, "internal_node_id": "0.0-1.0-21.0", "key_press": 80, "trial_index": 22, "gend": "female", "condition": 2}, {"rt": 886, "trial_type": "single-stim", "name": "Ashley", "stimulus": "<p class='center-content'>Is this a smile?</p><p class='center-content'><img src='img/Ashley_Disgust.jpg' height='410' width='730'></img></p>", "expr": "disgust", "time_elapsed": 47334, "internal_node_id": "0.0-1.0-22.0", "key_press": 81, "trial_index": 23, "gend": "female", "condition": 2}, {"rt": 1078, "trial_type": "single-stim", "name": "Anna", "stimulus": "<p class='center-content'>Is this a smile?</p><p class='center-content'><img src='img/Anna_Affiliation.jpg' height='410' width='730'></img></p>", "expr": "affiliation", "time_elapsed": 48416, "internal_node_id": "0.0-1.0-23.0", "key_press": 80, "trial_index": 24, "gend": "female", "condition": 2}, {"rt": 1223, "trial_type": "single-stim", "name": "Mary", "stimulus": "<p class='center-content'>Is this a smile?</p><p class='center-content'><img src='img/Mary_Affiliation.jpg' height='410' width='730'></img></p>", "expr": "affiliation", "time_elapsed": 49643, "internal_node_id": "0.0-1.0-24.0", "key_press": 80, "trial_index": 25, "gend": "female", "condition": 2}, {"rt": 894, "trial_type": "single-stim", "name": "Anthony", "stimulus": "<p class='center-content'>Is this a smile?</p><p class='center-content'><img src='img/Anthony_Dominance.jpg' height='410' width='730'></img></p>", "expr": "dominance", "time_elapsed": 50541, "internal_node_id": "0.0-1.0-25.0", "key_press": 80, "trial_index": 26, "gend": "male", "condition": 2}, {"rt": 721, "trial_type": "single-stim", "name": "KJ", "stimulus": "<p class='center-content'>Is this a smile?</p><p class='center-content'><img src='img/KJ_Disgust.jpg' height='410' width='730'></img></p>", "expr": "disgust", "time_elapsed": 51266, "internal_node_id": "0.0-1.0-26.0", "key_press": 81, "trial_index": 27, "gend": "female", "condition": 2}, {"rt": 865, "trial_type": "single-stim", "name": "Lulu", "stimulus": "<p class='center-content'>Is this a smile?</p><p class='center-content'><img src='img/Lulu.jpg' height='410' width='730'></img></p>", "expr": "neutral", "time_elapsed": 52136, "internal_node_id": "0.0-1.0-27.0", "key_press": 80, "trial_index": 28, "gend": "female", "condition": 2}, {"rt": 875, "trial_type": "single-stim", "name": "Maurice", "stimulus": "<p class='center-content'>Is this a smile?</p><p class='center-content'><img src='img/Maurice_Reward.jpg' height='410' width='730'></img></p>", "expr": "reward", "time_elapsed": 53015, "internal_node_id": "0.0-1.0-28.0", "key_press": 80, "trial_index": 29, "gend": "male", "condition": 2}, {"rt": 757, "trial_type": "single-stim", "name": "KJ", "stimulus": "<p class='center-content'>Is this a smile?</p><p class='center-content'><img src='img/KJ_Reward.jpg' height='410' width='730'></img></p>", "expr": "reward", "time_elapsed": 53776, "internal_node_id": "0.0-1.0-29.0", "key_press": 80, "trial_index": 30, "gend": "female", "condition": 2}, {"rt": 1055, "trial_type": "single-stim", "name": "Zach", "stimulus": "<p class='center-content'>Is this a smile?</p><p class='center-content'><img src='img/Zach_Dominance.jpg' height='410' width='730'></img></p>", "expr": "dominance", "time_elapsed": 54835, "internal_node_id": "0.0-1.0-30.0", "key_press": 80, "trial_index": 31, "gend": "male", "condition": 2}, {"rt": 803, "trial_type": "single-stim", "name": "Dmonte", "stimulus": "<p class='center-content'>Is this a smile?</p><p class='center-content'><img src='img/Dmonte_Affiliation.jpg' height='410' width='730'></img></p>", "expr": "affiliation", "time_elapsed": 55641, "internal_node_id": "0.0-1.0-31.0", "key_press": 80, "trial_index": 32, "gend": "male", "condition": 2}, {"rt": 722, "trial_type": "single-stim", "name": "Marcus", "stimulus": "<p class='center-content'>Is this a smile?</p><p class='center-content'><img src='img/Marcus_Reward.jpg' height='410' width='730'></img></p>", "expr": "reward", "time_elapsed": 56366, "internal_node_id": "0.0-1.0-32.0", "key_press": 80, "trial_index": 33, "gend": "male", "condition": 2}, {"rt": 1341, "trial_type": "single-stim", "name": "KJ", "stimulus": "<p class='center-content'>Is this a smile?</p><p class='center-content'><img src='img/KJ.jpg' height='410' width='730'></img></p>", "expr": "neutral", "time_elapsed": 57711, "internal_node_id": "0.0-1.0-33.0", "key_press": 81, "trial_index": 34, "gend": "female", "condition": 2}, {"rt": 776, "trial_type": "single-stim", "name": "Anna", "stimulus": "<p class='center-content'>Is this a smile?</p><p class='center-content'><img src='img/Anna_Dominance.jpg' height='410' width='730'></img></p>", "expr": "dominance", "time_elapsed": 58491, "internal_node_id": "0.0-1.0-34.0", "key_press": 80, "trial_index": 35, "gend": "female", "condition": 2}, {"rt": 992, "trial_type": "single-stim", "name": "Maurice", "stimulus": "<p class='center-content'>Is this a smile?</p><p class='center-content'><img src='img/Maurice_Dominance.jpg' height='410' width='730'></img></p>", "expr": "dominance", "time_elapsed": 59487, "internal_node_id": "0.0-1.0-35.0", "key_press": 80, "trial_index": 36, "gend": "male", "condition": 2}, {"rt": 869, "trial_type": "single-stim", "name": "Lulu", "stimulus": "<p class='center-content'>Is this a smile?</p><p class='center-content'><img src='img/Lulu_Disgust.jpg' height='410' width='730'></img></p>", "expr": "disgust", "time_elapsed": 60360, "internal_node_id": "0.0-1.0-36.0", "key_press": 80, "trial_index": 37, "gend": "female", "condition": 2}, {"rt": 1613, "trial_type": "single-stim", "name": "Dmonte", "stimulus": "<p class='center-content'>Is this a smile?</p><p class='center-content'><img src='img/Dmonte.jpg' height='410' width='730'></img></p>", "expr": "neutral", "time_elapsed": 61977, "internal_node_id": "0.0-1.0-37.0", "key_press": 81, "trial_index": 38, "gend": "male", "condition": 2}, {"rt": 1015, "trial_type": "single-stim", "name": "Ashley", "stimulus": "<p class='center-content'>Is this a smile?</p><p class='center-content'><img src='img/Ashley_Dominance.jpg' height='410' width='730'></img></p>", "expr": "dominance", "time_elapsed": 62996, "internal_node_id": "0.0-1.0-38.0", "key_press": 81, "trial_index": 39, "gend": "female", "condition": 2}, {"rt": 872, "trial_type": "single-stim", "name": "Anthony", "stimulus": "<p class='center-content'>Is this a smile?</p><p class='center-content'><img src='img/Anthony_Reward.jpg' height='410' width='730'></img></p>", "expr": "reward", "time_elapsed": 63872, "internal_node_id": "0.0-1.0-39.0", "key_press": 80, "trial_index": 40, "gend": "male", "condition": 2}, {"rt": 913, "trial_type": "single-stim", "name": "Anthony", "stimulus": "<p class='center-content'>Is this a smile?</p><p class='center-content'><img src='img/Anthony_Disgust.jpg' height='410' width='730'></img></p>", "expr": "disgust", "time_elapsed": 64788, "internal_node_id": "0.0-1.0-40.0", "key_press": 81, "trial_index": 41, "gend": "male", "condition": 2}, {"rt": 1058, "trial_type": "single-stim", "name": "Andrew", "stimulus": "<p class='center-content'>Is this a smile?</p><p class='center-content'><img src='img/Andrew.jpg' height='410' width='730'></img></p>", "expr": "neutral", "time_elapsed": 65850, "internal_node_id": "0.0-1.0-41.0", "key_press": 81, "trial_index": 42, "gend": "male", "condition": 2}, {"rt": 849, "trial_type": "single-stim", "name": "Anthony", "stimulus": "<p class='center-content'>Is this a smile?</p><p class='center-content'><img src='img/Anthony_Affiliation.jpg' height='410' width='730'></img></p>", "expr": "affiliation", "time_elapsed": 66702, "internal_node_id": "0.0-1.0-42.0", "key_press": 80, "trial_index": 43, "gend": "male", "condition": 2}, {"rt": 835, "trial_type": "single-stim", "name": "Naomi", "stimulus": "<p class='center-content'>Is this a smile?</p><p class='center-content'><img src='img/Naomi_Dominance.jpg' height='410' width='730'></img></p>", "expr": "dominance", "time_elapsed": 67542, "internal_node_id": "0.0-1.0-43.0", "key_press": 80, "trial_index": 44, "gend": "female", "condition": 2}, {"rt": 837, "trial_type": "single-stim", "name": "Andrew", "stimulus": "<p class='center-content'>Is this a smile?</p><p class='center-content'><img src='img/Andrew_Dominance.jpg' height='410' width='730'></img></p>", "expr": "dominance", "time_elapsed": 68383, "internal_node_id": "0.0-1.0-44.0", "key_press": 80, "trial_index": 45, "gend": "male", "condition": 2}, {"rt": 1418, "trial_type": "single-stim", "name": "Dmonte", "stimulus": "<p class='center-content'>Is this a smile?</p><p class='center-content'><img src='img/Dmonte_Dominance.jpg' height='410' width='730'></img></p>", "expr": "dominance", "time_elapsed": 69805, "internal_node_id": "0.0-1.0-45.0", "key_press": 80, "trial_index": 46, "gend": "male", "condition": 2}, {"rt": 766, "trial_type": "single-stim", "name": "KJ", "stimulus": "<p class='center-content'>Is this a smile?</p><p class='center-content'><img src='img/KJ_Affiliation.jpg' height='410' width='730'></img></p>", "expr": "affiliation", "time_elapsed": 70574, "internal_node_id": "0.0-1.0-46.0", "key_press": 80, "trial_index": 47, "gend": "female", "condition": 2}, {"rt": 1040, "trial_type": "single-stim", "name": "Anna", "stimulus": "<p class='center-content'>Is this a smile?</p><p class='center-content'><img src='img/Anna_Disgust.jpg' height='410' width='730'></img></p>", "expr": "disgust", "time_elapsed": 71618, "internal_node_id": "0.0-1.0-47.0", "key_press": 81, "trial_index": 48, "gend": "female", "condition": 2}, {"rt": 1026, "trial_type": "single-stim", "name": "Jourdan", "stimulus": "<p class='center-content'>Is this a smile?</p><p class='center-content'><img src='img/Jourdan_Affiliation.jpg' height='410' width='730'></img></p>", "expr": "affiliation", "time_elapsed": 72648, "internal_node_id": "0.0-1.0-48.0", "key_press": 80, "trial_index": 49, "gend": "male", "condition": 2}, {"rt": 757, "trial_type": "single-stim", "name": "Dmonte", "stimulus": "<p class='center-content'>Is this a smile?</p><p class='center-content'><img src='img/Dmonte_Reward.jpg' height='410' width='730'></img></p>", "expr": "reward", "time_elapsed": 73410, "internal_node_id": "0.0-1.0-49.0", "key_press": 80, "trial_index": 50, "gend": "male", "condition": 2}, {"rt": 1305, "trial_type": "single-stim", "name": "Ashley", "stimulus": "<p class='center-content'>Is this a smile?</p><p class='center-content'><img src='img/Ashley_Affiliation.jpg' height='410' width='730'></img></p>", "expr": "affiliation", "time_elapsed": 74719, "internal_node_id": "0.0-1.0-50.0", "key_press": 80, "trial_index": 51, "gend": "female", "condition": 2}, {"rt": 1913, "trial_type": "single-stim", "name": "Marcus", "stimulus": "<p class='center-content'>Is this a smile?</p><p class='center-content'><img src='img/Marcus_Affiliation.jpg' height='410' width='730'></img></p>", "expr": "affiliation", "time_elapsed": 76637, "internal_node_id": "0.0-1.0-51.0", "key_press": 81, "trial_index": 52, "gend": "male", "condition": 2}, {"rt": 767, "trial_type": "single-stim", "name": "Lulu", "stimulus": "<p class='center-content'>Is this a smile?</p><p class='center-content'><img src='img/Lulu_Reward.jpg' height='410' width='730'></img></p>", "expr": "reward", "time_elapsed": 77407, "internal_node_id": "0.0-1.0-52.0", "key_press": 80, "trial_index": 53, "gend": "female", "condition": 2}, {"rt": 882, "trial_type": "single-stim", "name": "Jessica", "stimulus": "<p class='center-content'>Is this a smile?</p><p class='center-content'><img src='img/Jessica_Dominance.jpg' height='410' width='730'></img></p>", "expr": "dominance", "time_elapsed": 78293, "internal_node_id": "0.0-1.0-53.0", "key_press": 80, "trial_index": 54, "gend": "female", "condition": 2}, {"rt": 864, "trial_type": "single-stim", "name": "Mary", "stimulus": "<p class='center-content'>Is this a smile?</p><p class='center-content'><img src='img/Mary_Disgust.jpg' height='410' width='730'></img></p>", "expr": "disgust", "time_elapsed": 79161, "internal_node_id": "0.0-1.0-54.0", "key_press": 81, "trial_index": 55, "gend": "female", "condition": 2}, {"rt": 855, "trial_type": "single-stim", "name": "Jourdan", "stimulus": "<p class='center-content'>Is this a smile?</p><p class='center-content'><img src='img/Jourdan_Reward.jpg' height='410' width='730'></img></p>", "expr": "reward", "time_elapsed": 80020, "internal_node_id": "0.0-1.0-55.0", "key_press": 80, "trial_index": 56, "gend": "male", "condition": 2}, {"rt": 1050, "trial_type": "single-stim", "name": "Maurice", "stimulus": "<p class='center-content'>Is this a smile?</p><p class='center-content'><img src='img/Maurice.jpg' height='410' width='730'></img></p>", "expr": "neutral", "time_elapsed": 81075, "internal_node_id": "0.0-1.0-56.0", "key_press": 81, "trial_index": 57, "gend": "male", "condition": 2}, {"rt": 1010, "trial_type": "single-stim", "name": "Joeseph", "stimulus": "<p class='center-content'>Is this a smile?</p><p class='center-content'><img src='img/Joeseph_Disgust.jpg' height='410' width='730'></img></p>", "expr": "disgust", "time_elapsed": 82089, "internal_node_id": "0.0-1.0-57.0", "key_press": 81, "trial_index": 58, "gend": "male", "condition": 2}, {"rt": 832, "trial_type": "single-stim", "name": "Naomi", "stimulus": "<p class='center-content'>Is this a smile?</p><p class='center-content'><img src='img/Naomi_Reward.jpg' height='410' width='730'></img></p>", "expr": "reward", "time_elapsed": 82923, "internal_node_id": "0.0-1.0-58.0", "key_press": 80, "trial_index": 59, "gend": "female", "condition": 2}, {"rt": 876, "trial_type": "single-stim", "name": "KJ", "stimulus": "<p class='center-content'>Is this a smile?</p><p class='center-content'><img src='img/KJ_Dominance.jpg' height='410' width='730'></img></p>", "expr": "dominance", "time_elapsed": 83803, "internal_node_id": "0.0-1.0-59.0", "key_press": 80, "trial_index": 60, "gend": "female", "condition": 2}, {"rt": 690, "trial_type": "single-stim", "name": "Dmonte", "stimulus": "<p class='center-content'>Is this a smile?</p><p class='center-content'><img src='img/Dmonte_Disgust.jpg' height='410' width='730'></img></p>", "expr": "disgust", "time_elapsed": 84497, "internal_node_id": "0.0-1.0-60.0", "key_press": 81, "trial_index": 61, "gend": "male", "condition": 2}, {"rt": 663, "trial_type": "single-stim", "name": "Maurice", "stimulus": "<p class='center-content'>Is this a smile?</p><p class='center-content'><img src='img/Maurice_Disgust.jpg' height='410' width='730'></img></p>", "expr": "disgust", "time_elapsed": 85163, "internal_node_id": "0.0-1.0-61.0", "key_press": 81, "trial_index": 62, "gend": "male", "condition": 2}, {"rt": 851, "trial_type": "single-stim", "name": "Anna", "stimulus": "<p class='center-content'>Is this a smile?</p><p class='center-content'><img src='img/Anna_Reward.jpg' height='410' width='730'></img></p>", "expr": "reward", "time_elapsed": 86018, "internal_node_id": "0.0-1.0-62.0", "key_press": 80, "trial_index": 63, "gend": "female", "condition": 2}, {"rt": 786, "trial_type": "single-stim", "name": "Maurice", "stimulus": "<p class='center-content'>Is this a smile?</p><p class='center-content'><img src='img/Maurice_Affiliation.jpg' height='410' width='730'></img></p>", "expr": "affiliation", "time_elapsed": 86808, "internal_node_id": "0.0-1.0-63.0", "key_press": 81, "trial_index": 64, "gend": "male", "condition": 2}, {"rt": 1011, "trial_type": "single-stim", "name": "Naomi", "stimulus": "<p class='center-content'>Is this a smile?</p><p class='center-content'><img src='img/Naomi_Affiliation.jpg' height='410' width='730'></img></p>", "expr": "affiliation", "time_elapsed": 87822, "internal_node_id": "0.0-1.0-64.0", "key_press": 80, "trial_index": 65, "gend": "female", "condition": 2}, {"rt": 685, "trial_type": "single-stim", "name": "Marcus", "stimulus": "<p class='center-content'>Is this a smile?</p><p class='center-content'><img src='img/Marcus_Disgust.jpg' height='410' width='730'></img></p>", "expr": "disgust", "time_elapsed": 88512, "internal_node_id": "0.0-1.0-65.0", "key_press": 81, "trial_index": 66, "gend": "male", "condition": 2}, {"rt": 939, "trial_type": "single-stim", "name": "Lulu", "stimulus": "<p class='center-content'>Is this a smile?</p><p class='center-content'><img src='img/Lulu_Dominance.jpg' height='410' width='730'></img></p>", "expr": "dominance", "time_elapsed": 89454, "internal_node_id": "0.0-1.0-66.0", "key_press": 80, "trial_index": 67, "gend": "female", "condition": 2}, {"rt": 1170, "trial_type": "single-stim", "name": "Ashley", "stimulus": "<p class='center-content'>Is this a smile?</p><p class='center-content'><img src='img/Ashley_Reward.jpg' height='410' width='730'></img></p>", "expr": "reward", "time_elapsed": 90628, "internal_node_id": "0.0-1.0-67.0", "key_press": 81, "trial_index": 68, "gend": "female", "condition": 2}, {"rt": 1606, "trial_type": "single-stim", "name": "Joeseph", "stimulus": "<p class='center-content'>Is this a smile?</p><p class='center-content'><img src='img/Joeseph_Reward.jpg' height='410' width='730'></img></p>", "expr": "reward", "time_elapsed": 92239, "internal_node_id": "0.0-1.0-68.0", "key_press": 80, "trial_index": 69, "gend": "male", "condition": 2}, {"rt": 999, "trial_type": "single-stim", "name": "Jessica", "stimulus": "<p class='center-content'>Is this a smile?</p><p class='center-content'><img src='img/Jessica_Disgust.jpg' height='410' width='730'></img></p>", "expr": "disgust", "time_elapsed": 93241, "internal_node_id": "0.0-1.0-69.0", "key_press": 81, "trial_index": 70, "gend": "female", "condition": 2}, {"rt": 884, "trial_type": "single-stim", "name": "Ashley", "stimulus": "<p class='center-content'>Is this a smile?</p><p class='center-content'><img src='img/Ashley.jpg' height='410' width='730'></img></p>", "expr": "neutral", "time_elapsed": 94129, "internal_node_id": "0.0-1.0-70.0", "key_press": 81, "trial_index": 71, "gend": "female", "condition": 2}, {"rt": 856, "trial_type": "single-stim", "name": "Mary", "stimulus": "<p class='center-content'>Is this a smile?</p><p class='center-content'><img src='img/Mary.jpg' height='410' width='730'></img></p>", "expr": "neutral", "time_elapsed": 94989, "internal_node_id": "0.0-1.0-71.0", "key_press": 81, "trial_index": 72, "gend": "female", "condition": 2}, {"rt": 714, "trial_type": "single-stim", "name": "Andrew", "stimulus": "<p class='center-content'>Is this a smile?</p><p class='center-content'><img src='img/Andrew_Reward.jpg' height='410' width='730'></img></p>", "expr": "reward", "time_elapsed": 95707, "internal_node_id": "0.0-1.0-72.0", "key_press": 80, "trial_index": 73, "gend": "male", "condition": 2}, {"rt": 820, "trial_type": "single-stim", "name": "Zach", "stimulus": "<p class='center-content'>Is this a smile?</p><p class='center-content'><img src='img/Zach_Disgust.jpg' height='410' width='730'></img></p>", "expr": "disgust", "time_elapsed": 96531, "internal_node_id": "0.0-1.0-73.0", "key_press": 81, "trial_index": 74, "gend": "male", "condition": 2}, {"rt": 788, "trial_type": "single-stim", "name": "Zach", "stimulus": "<p class='center-content'>Is this a smile?</p><p class='center-content'><img src='img/Zach_Reward.jpg' height='410' width='730'></img></p>", "expr": "reward", "time_elapsed": 97323, "internal_node_id": "0.0-1.0-74.0", "key_press": 80, "trial_index": 75, "gend": "male", "condition": 2}, {"rt": 11479, "trial_type": "survey-multi-choice", "responses": "{\"Q0\":\"Female\",\"Q1\":\"White/Caucasian/European American\",\"Q2\":\"Right\"}", "time_elapsed": 108829, "internal_node_id": "0.0-2.0", "trial_index": 76}, {"rt": 10376, "trial_type": "survey-text", "responses": "{\"Q0\":\"NO\"}", "time_elapsed": 120211, "internal_node_id": "0.0-3.0", "trial_index": 77}, {"rt": 5403, "trial_type": "text", "time_elapsed": 126617, "internal_node_id": "0.0-4.0", "key_press": 13, "trial_index": 78}]}, "AcceptTime": "2017-12-06T00:08:02Z", "HITId": "3GMLHYZ0LEXKH19JZZ4790SENP6YUD", "Assignment": "", "AssignmentStatus": "Approved", "SubmitTime": "2017-12-06T00:16:53Z"}