{"ApprovalTime": "2017-12-05T21:50:18Z", "AutoApprovalTime": "2017-12-05T21:49:28Z", "AssignmentId": "3FTOP5WARFOHTA0X5VULZQL8ZMP0JI", "WorkerId": "anon23", "answers": {"data": [{"rt": 3187, "trial_type": "text", "time_elapsed": 3218, "internal_node_id": "0.0-0.0", "key_press": 32, "trial_index": 0}, {"rt": 1218, "trial_type": "single-stim", "name": "Anthony", "stimulus": "<p class='center-content'>Is this a smile?</p><p class='center-content'><img src='img/Anthony_Affiliation.jpg' height='410' width='730'></img></p>", "expr": "affiliation", "time_elapsed": 6462, "internal_node_id": "0.0-1.0-0.0", "key_press": 80, "trial_index": 1, "gend": "male", "condition": 2}, {"rt": 587, "trial_type": "single-stim", "name": "Mary", "stimulus": "<p class='center-content'>Is this a smile?</p><p class='center-content'><img src='img/Mary_Dominance.jpg' height='410' width='730'></img></p>", "expr": "dominance", "time_elapsed": 7049, "internal_node_id": "0.0-1.0-1.0", "key_press": 80, "trial_index": 2, "gend": "female", "condition": 2}, {"rt": 501, "trial_type": "single-stim", "name": "Maurice", "stimulus": "<p class='center-content'>Is this a smile?</p><p class='center-content'><img src='img/Maurice_Reward.jpg' height='410' width='730'></img></p>", "expr": "reward", "time_elapsed": 7550, "internal_node_id": "0.0-1.0-2.0", "key_press": 80, "trial_index": 3, "gend": "male", "condition": 2}, {"rt": 544, "trial_type": "single-stim", "name": "Jessica", "stimulus": "<p class='center-content'>Is this a smile?</p><p class='center-content'><img src='img/Jessica_Reward.jpg' height='410' width='730'></img></p>", "expr": "reward", "time_elapsed": 8094, "internal_node_id": "0.0-1.0-3.0", "key_press": 80, "trial_index": 4, "gend": "female", "condition": 2}, {"rt": 644, "trial_type": "single-stim", "name": "Anna", "stimulus": "<p class='center-content'>Is this a smile?</p><p class='center-content'><img src='img/Anna_Disgust.jpg' height='410' width='730'></img></p>", "expr": "disgust", "time_elapsed": 8738, "internal_node_id": "0.0-1.0-4.0", "key_press": 81, "trial_index": 5, "gend": "female", "condition": 2}, {"rt": 514, "trial_type": "single-stim", "name": "Anthony", "stimulus": "<p class='center-content'>Is this a smile?</p><p class='center-content'><img src='img/Anthony.jpg' height='410' width='730'></img></p>", "expr": "neutral", "time_elapsed": 9252, "internal_node_id": "0.0-1.0-5.0", "key_press": 81, "trial_index": 6, "gend": "male", "condition": 2}, {"rt": 1098, "trial_type": "single-stim", "name": "Andrew", "stimulus": "<p class='center-content'>Is this a smile?</p><p class='center-content'><img src='img/Andrew_Affiliation.jpg' height='410' width='730'></img></p>", "expr": "affiliation", "time_elapsed": 10350, "internal_node_id": "0.0-1.0-6.0", "key_press": 80, "trial_index": 7, "gend": "male", "condition": 2}, {"rt": 447, "trial_type": "single-stim", "name": "Andrew", "stimulus": "<p class='center-content'>Is this a smile?</p><p class='center-content'><img src='img/Andrew_Reward.jpg' height='410' width='730'></img></p>", "expr": "reward", "time_elapsed": 10797, "internal_node_id": "0.0-1.0-7.0", "key_press": 80, "trial_index": 8, "gend": "male", "condition": 2}, {"rt": 606, "trial_type": "single-stim", "name": "Marcus", "stimulus": "<p class='center-content'>Is this a smile?</p><p class='center-content'><img src='img/Marcus_Dominance.jpg' height='410' width='730'></img></p>", "expr": "dominance", "time_elapsed": 11403, "internal_node_id": "0.0-1.0-8.0", "key_press": 80, "trial_index": 9, "gend": "male", "condition": 2}, {"rt": 702, "trial_type": "single-stim", "name": "Anna", "stimulus": "<p class='center-content'>Is this a smile?</p><p class='center-content'><img src='img/Anna.jpg' height='410' width='730'></img></p>", "expr": "neutral", "time_elapsed": 12105, "internal_node_id": "0.0-1.0-9.0", "key_press": 80, "trial_index": 10, "gend": "female", "condition": 2}, {"rt": 620, "trial_type": "single-stim", "name": "Ashley", "stimulus": "<p class='center-content'>Is this a smile?</p><p class='center-content'><img src='img/Ashley.jpg' height='410' width='730'></img></p>", "expr": "neutral", "time_elapsed": 12725, "internal_node_id": "0.0-1.0-10.0", "key_press": 81, "trial_index": 11, "gend": "female", "condition": 2}, {"rt": 578, "trial_type": "single-stim", "name": "Jourdan", "stimulus": "<p class='center-content'>Is this a smile?</p><p class='center-content'><img src='img/Jourdan_Disgust.jpg' height='410' width='730'></img></p>", "expr": "disgust", "time_elapsed": 13303, "internal_node_id": "0.0-1.0-11.0", "key_press": 81, "trial_index": 12, "gend": "male", "condition": 2}, {"rt": 644, "trial_type": "single-stim", "name": "Mary", "stimulus": "<p class='center-content'>Is this a smile?</p><p class='center-content'><img src='img/Mary_Affiliation.jpg' height='410' width='730'></img></p>", "expr": "affiliation", "time_elapsed": 13947, "internal_node_id": "0.0-1.0-12.0", "key_press": 80, "trial_index": 13, "gend": "female", "condition": 2}, {"rt": 432, "trial_type": "single-stim", "name": "Mary", "stimulus": "<p class='center-content'>Is this a smile?</p><p class='center-content'><img src='img/Mary_Reward.jpg' height='410' width='730'></img></p>", "expr": "reward", "time_elapsed": 14379, "internal_node_id": "0.0-1.0-13.0", "key_press": 80, "trial_index": 14, "gend": "female", "condition": 2}, {"rt": 521, "trial_type": "single-stim", "name": "Anthony", "stimulus": "<p class='center-content'>Is this a smile?</p><p class='center-content'><img src='img/Anthony_Disgust.jpg' height='410' width='730'></img></p>", "expr": "disgust", "time_elapsed": 14900, "internal_node_id": "0.0-1.0-14.0", "key_press": 81, "trial_index": 15, "gend": "male", "condition": 2}, {"rt": 590, "trial_type": "single-stim", "name": "Maurice", "stimulus": "<p class='center-content'>Is this a smile?</p><p class='center-content'><img src='img/Maurice_Disgust.jpg' height='410' width='730'></img></p>", "expr": "disgust", "time_elapsed": 15490, "internal_node_id": "0.0-1.0-15.0", "key_press": 81, "trial_index": 16, "gend": "male", "condition": 2}, {"rt": 1714, "trial_type": "single-stim", "name": "Naomi", "stimulus": "<p class='center-content'>Is this a smile?</p><p class='center-content'><img src='img/Naomi.jpg' height='410' width='730'></img></p>", "expr": "neutral", "time_elapsed": 17204, "internal_node_id": "0.0-1.0-16.0", "key_press": 80, "trial_index": 17, "gend": "female", "condition": 2}, {"rt": 525, "trial_type": "single-stim", "name": "Dmonte", "stimulus": "<p class='center-content'>Is this a smile?</p><p class='center-content'><img src='img/Dmonte_Dominance.jpg' height='410' width='730'></img></p>", "expr": "dominance", "time_elapsed": 17729, "internal_node_id": "0.0-1.0-17.0", "key_press": 80, "trial_index": 18, "gend": "male", "condition": 2}, {"rt": 776, "trial_type": "single-stim", "name": "Marcus", "stimulus": "<p class='center-content'>Is this a smile?</p><p class='center-content'><img src='img/Marcus_Affiliation.jpg' height='410' width='730'></img></p>", "expr": "affiliation", "time_elapsed": 18505, "internal_node_id": "0.0-1.0-18.0", "key_press": 80, "trial_index": 19, "gend": "male", "condition": 2}, {"rt": 557, "trial_type": "single-stim", "name": "Maurice", "stimulus": "<p class='center-content'>Is this a smile?</p><p class='center-content'><img src='img/Maurice_Dominance.jpg' height='410' width='730'></img></p>", "expr": "dominance", "time_elapsed": 19062, "internal_node_id": "0.0-1.0-19.0", "key_press": 80, "trial_index": 20, "gend": "male", "condition": 2}, {"rt": 609, "trial_type": "single-stim", "name": "Ashley", "stimulus": "<p class='center-content'>Is this a smile?</p><p class='center-content'><img src='img/Ashley_Disgust.jpg' height='410' width='730'></img></p>", "expr": "disgust", "time_elapsed": 19671, "internal_node_id": "0.0-1.0-20.0", "key_press": 81, "trial_index": 21, "gend": "female", "condition": 2}, {"rt": 567, "trial_type": "single-stim", "name": "KJ", "stimulus": "<p class='center-content'>Is this a smile?</p><p class='center-content'><img src='img/KJ_Disgust.jpg' height='410' width='730'></img></p>", "expr": "disgust", "time_elapsed": 20238, "internal_node_id": "0.0-1.0-21.0", "key_press": 81, "trial_index": 22, "gend": "female", "condition": 2}, {"rt": 599, "trial_type": "single-stim", "name": "Dmonte", "stimulus": "<p class='center-content'>Is this a smile?</p><p class='center-content'><img src='img/Dmonte_Reward.jpg' height='410' width='730'></img></p>", "expr": "reward", "time_elapsed": 20837, "internal_node_id": "0.0-1.0-22.0", "key_press": 80, "trial_index": 23, "gend": "male", "condition": 2}, {"rt": 557, "trial_type": "single-stim", "name": "Ashley", "stimulus": "<p class='center-content'>Is this a smile?</p><p class='center-content'><img src='img/Ashley_Dominance.jpg' height='410' width='730'></img></p>", "expr": "dominance", "time_elapsed": 21425, "internal_node_id": "0.0-1.0-23.0", "key_press": 80, "trial_index": 24, "gend": "female", "condition": 2}, {"rt": 795, "trial_type": "single-stim", "name": "Lulu", "stimulus": "<p class='center-content'>Is this a smile?</p><p class='center-content'><img src='img/Lulu_Affiliation.jpg' height='410' width='730'></img></p>", "expr": "affiliation", "time_elapsed": 22220, "internal_node_id": "0.0-1.0-24.0", "key_press": 81, "trial_index": 25, "gend": "female", "condition": 2}, {"rt": 893, "trial_type": "single-stim", "name": "Zach", "stimulus": "<p class='center-content'>Is this a smile?</p><p class='center-content'><img src='img/Zach_Reward.jpg' height='410' width='730'></img></p>", "expr": "reward", "time_elapsed": 23113, "internal_node_id": "0.0-1.0-25.0", "key_press": 80, "trial_index": 26, "gend": "male", "condition": 2}, {"rt": 745, "trial_type": "single-stim", "name": "Dmonte", "stimulus": "<p class='center-content'>Is this a smile?</p><p class='center-content'><img src='img/Dmonte.jpg' height='410' width='730'></img></p>", "expr": "neutral", "time_elapsed": 23858, "internal_node_id": "0.0-1.0-26.0", "key_press": 81, "trial_index": 27, "gend": "male", "condition": 2}, {"rt": 913, "trial_type": "single-stim", "name": "Naomi", "stimulus": "<p class='center-content'>Is this a smile?</p><p class='center-content'><img src='img/Naomi_Reward.jpg' height='410' width='730'></img></p>", "expr": "reward", "time_elapsed": 24771, "internal_node_id": "0.0-1.0-27.0", "key_press": 80, "trial_index": 28, "gend": "female", "condition": 2}, {"rt": 548, "trial_type": "single-stim", "name": "Andrew", "stimulus": "<p class='center-content'>Is this a smile?</p><p class='center-content'><img src='img/Andrew_Dominance.jpg' height='410' width='730'></img></p>", "expr": "dominance", "time_elapsed": 25319, "internal_node_id": "0.0-1.0-28.0", "key_press": 80, "trial_index": 29, "gend": "male", "condition": 2}, {"rt": 493, "trial_type": "single-stim", "name": "Jourdan", "stimulus": "<p class='center-content'>Is this a smile?</p><p class='center-content'><img src='img/Jourdan_Affiliation.jpg' height='410' width='730'></img></p>", "expr": "affiliation", "time_elapsed": 25812, "internal_node_id": "0.0-1.0-29.0", "key_press": 80, "trial_index": 30, "gend": "male", "condition": 2}, {"rt": 862, "trial_type": "single-stim", "name": "Marcus", "stimulus": "<p class='center-content'>Is this a smile?</p><p class='center-content'><img src='img/Marcus.jpg' height='410' width='730'></img></p>", "expr": "neutral", "time_elapsed": 26674, "internal_node_id": "0.0-1.0-30.0", "key_press": 80, "trial_index": 31, "gend": "male", "condition": 2}, {"rt": 696, "trial_type": "single-stim", "name": "Naomi", "stimulus": "<p class='center-content'>Is this a smile?</p><p class='center-content'><img src='img/Naomi_DIsgust.jpg' height='410' width='730'></img></p>", "expr": "disgust", "time_elapsed": 27370, "internal_node_id": "0.0-1.0-31.0", "key_press": 81, "trial_index": 32, "gend": "female", "condition": 2}, {"rt": 551, "trial_type": "single-stim", "name": "Anna", "stimulus": "<p class='center-content'>Is this a smile?</p><p class='center-content'><img src='img/Anna_Affiliation.jpg' height='410' width='730'></img></p>", "expr": "affiliation", "time_elapsed": 27921, "internal_node_id": "0.0-1.0-32.0", "key_press": 81, "trial_index": 33, "gend": "female", "condition": 2}, {"rt": 1538, "trial_type": "single-stim", "name": "Lulu", "stimulus": "<p class='center-content'>Is this a smile?</p><p class='center-content'><img src='img/Lulu.jpg' height='410' width='730'></img></p>", "expr": "neutral", "time_elapsed": 29459, "internal_node_id": "0.0-1.0-33.0", "key_press": 81, "trial_index": 34, "gend": "female", "condition": 2}, {"rt": 648, "trial_type": "single-stim", "name": "KJ", "stimulus": "<p class='center-content'>Is this a smile?</p><p class='center-content'><img src='img/KJ_Dominance.jpg' height='410' width='730'></img></p>", "expr": "dominance", "time_elapsed": 30107, "internal_node_id": "0.0-1.0-34.0", "key_press": 80, "trial_index": 35, "gend": "female", "condition": 2}, {"rt": 620, "trial_type": "single-stim", "name": "Naomi", "stimulus": "<p class='center-content'>Is this a smile?</p><p class='center-content'><img src='img/Naomi_Affiliation.jpg' height='410' width='730'></img></p>", "expr": "affiliation", "time_elapsed": 30727, "internal_node_id": "0.0-1.0-35.0", "key_press": 80, "trial_index": 36, "gend": "female", "condition": 2}, {"rt": 668, "trial_type": "single-stim", "name": "Lulu", "stimulus": "<p class='center-content'>Is this a smile?</p><p class='center-content'><img src='img/Lulu_Dominance.jpg' height='410' width='730'></img></p>", "expr": "dominance", "time_elapsed": 31395, "internal_node_id": "0.0-1.0-36.0", "key_press": 80, "trial_index": 37, "gend": "female", "condition": 2}, {"rt": 606, "trial_type": "single-stim", "name": "Jessica", "stimulus": "<p class='center-content'>Is this a smile?</p><p class='center-content'><img src='img/Jessica_Dominance.jpg' height='410' width='730'></img></p>", "expr": "dominance", "time_elapsed": 32001, "internal_node_id": "0.0-1.0-37.0", "key_press": 80, "trial_index": 38, "gend": "female", "condition": 2}, {"rt": 704, "trial_type": "single-stim", "name": "KJ", "stimulus": "<p class='center-content'>Is this a smile?</p><p class='center-content'><img src='img/KJ.jpg' height='410' width='730'></img></p>", "expr": "neutral", "time_elapsed": 32705, "internal_node_id": "0.0-1.0-38.0", "key_press": 80, "trial_index": 39, "gend": "female", "condition": 2}, {"rt": 543, "trial_type": "single-stim", "name": "Naomi", "stimulus": "<p class='center-content'>Is this a smile?</p><p class='center-content'><img src='img/Naomi_Dominance.jpg' height='410' width='730'></img></p>", "expr": "dominance", "time_elapsed": 33248, "internal_node_id": "0.0-1.0-39.0", "key_press": 80, "trial_index": 40, "gend": "female", "condition": 2}, {"rt": 586, "trial_type": "single-stim", "name": "Anthony", "stimulus": "<p class='center-content'>Is this a smile?</p><p class='center-content'><img src='img/Anthony_Dominance.jpg' height='410' width='730'></img></p>", "expr": "dominance", "time_elapsed": 33835, "internal_node_id": "0.0-1.0-40.0", "key_press": 80, "trial_index": 41, "gend": "male", "condition": 2}, {"rt": 536, "trial_type": "single-stim", "name": "Maurice", "stimulus": "<p class='center-content'>Is this a smile?</p><p class='center-content'><img src='img/Maurice_Affiliation.jpg' height='410' width='730'></img></p>", "expr": "affiliation", "time_elapsed": 34373, "internal_node_id": "0.0-1.0-41.0", "key_press": 81, "trial_index": 42, "gend": "male", "condition": 2}, {"rt": 916, "trial_type": "single-stim", "name": "Joeseph", "stimulus": "<p class='center-content'>Is this a smile?</p><p class='center-content'><img src='img/Joeseph_Disgust.jpg' height='410' width='730'></img></p>", "expr": "disgust", "time_elapsed": 35289, "internal_node_id": "0.0-1.0-42.0", "key_press": 81, "trial_index": 43, "gend": "male", "condition": 2}, {"rt": 624, "trial_type": "single-stim", "name": "Anna", "stimulus": "<p class='center-content'>Is this a smile?</p><p class='center-content'><img src='img/Anna_Reward.jpg' height='410' width='730'></img></p>", "expr": "reward", "time_elapsed": 35913, "internal_node_id": "0.0-1.0-43.0", "key_press": 80, "trial_index": 44, "gend": "female", "condition": 2}, {"rt": 940, "trial_type": "single-stim", "name": "Dmonte", "stimulus": "<p class='center-content'>Is this a smile?</p><p class='center-content'><img src='img/Dmonte_Affiliation.jpg' height='410' width='730'></img></p>", "expr": "affiliation", "time_elapsed": 36853, "internal_node_id": "0.0-1.0-44.0", "key_press": 80, "trial_index": 45, "gend": "male", "condition": 2}, {"rt": -207, "trial_type": "single-stim", "name": "Maurice", "stimulus": "<p class='center-content'>Is this a smile?</p><p class='center-content'><img src='img/Maurice.jpg' height='410' width='730'></img></p>", "expr": "neutral", "time_elapsed": 36662, "internal_node_id": "0.0-1.0-45.0", "key_press": 81, "trial_index": 46, "gend": "male", "condition": 2}, {"rt": 651, "trial_type": "single-stim", "name": "Andrew", "stimulus": "<p class='center-content'>Is this a smile?</p><p class='center-content'><img src='img/Andrew.jpg' height='410' width='730'></img></p>", "expr": "neutral", "time_elapsed": 37313, "internal_node_id": "0.0-1.0-46.0", "key_press": 81, "trial_index": 47, "gend": "male", "condition": 2}, {"rt": 596, "trial_type": "single-stim", "name": "Jourdan", "stimulus": "<p class='center-content'>Is this a smile?</p><p class='center-content'><img src='img/Jourdan.jpg' height='410' width='730'></img></p>", "expr": "neutral", "time_elapsed": 37909, "internal_node_id": "0.0-1.0-47.0", "key_press": 81, "trial_index": 48, "gend": "male", "condition": 2}, {"rt": 568, "trial_type": "single-stim", "name": "Marcus", "stimulus": "<p class='center-content'>Is this a smile?</p><p class='center-content'><img src='img/Marcus_Reward.jpg' height='410' width='730'></img></p>", "expr": "reward", "time_elapsed": 38477, "internal_node_id": "0.0-1.0-48.0", "key_press": 80, "trial_index": 49, "gend": "male", "condition": 2}, {"rt": 510, "trial_type": "single-stim", "name": "Anna", "stimulus": "<p class='center-content'>Is this a smile?</p><p class='center-content'><img src='img/Anna_Dominance.jpg' height='410' width='730'></img></p>", "expr": "dominance", "time_elapsed": 38987, "internal_node_id": "0.0-1.0-49.0", "key_press": 80, "trial_index": 50, "gend": "female", "condition": 2}, {"rt": 656, "trial_type": "single-stim", "name": "Jessica", "stimulus": "<p class='center-content'>Is this a smile?</p><p class='center-content'><img src='img/Jessica_Disgust.jpg' height='410' width='730'></img></p>", "expr": "disgust", "time_elapsed": 39643, "internal_node_id": "0.0-1.0-50.0", "key_press": 81, "trial_index": 51, "gend": "female", "condition": 2}, {"rt": 518, "trial_type": "single-stim", "name": "Dmonte", "stimulus": "<p class='center-content'>Is this a smile?</p><p class='center-content'><img src='img/Dmonte_Disgust.jpg' height='410' width='730'></img></p>", "expr": "disgust", "time_elapsed": 40161, "internal_node_id": "0.0-1.0-51.0", "key_press": 81, "trial_index": 52, "gend": "male", "condition": 2}, {"rt": 513, "trial_type": "single-stim", "name": "Zach", "stimulus": "<p class='center-content'>Is this a smile?</p><p class='center-content'><img src='img/Zach_Disgust.jpg' height='410' width='730'></img></p>", "expr": "disgust", "time_elapsed": 40674, "internal_node_id": "0.0-1.0-52.0", "key_press": 81, "trial_index": 53, "gend": "male", "condition": 2}, {"rt": 587, "trial_type": "single-stim", "name": "Andrew", "stimulus": "<p class='center-content'>Is this a smile?</p><p class='center-content'><img src='img/Andrew_Disgust.jpg' height='410' width='730'></img></p>", "expr": "disgust", "time_elapsed": 41261, "internal_node_id": "0.0-1.0-53.0", "key_press": 81, "trial_index": 54, "gend": "male", "condition": 2}, {"rt": 678, "trial_type": "single-stim", "name": "Joeseph", "stimulus": "<p class='center-content'>Is this a smile?</p><p class='center-content'><img src='img/Joeseph_Dominance.jpg' height='410' width='730'></img></p>", "expr": "dominance", "time_elapsed": 41939, "internal_node_id": "0.0-1.0-54.0", "key_press": 80, "trial_index": 55, "gend": "male", "condition": 2}, {"rt": 483, "trial_type": "single-stim", "name": "Jourdan", "stimulus": "<p class='center-content'>Is this a smile?</p><p class='center-content'><img src='img/Jourdan_Reward.jpg' height='410' width='730'></img></p>", "expr": "reward", "time_elapsed": 42454, "internal_node_id": "0.0-1.0-55.0", "key_press": 80, "trial_index": 56, "gend": "male", "condition": 2}, {"rt": 577, "trial_type": "single-stim", "name": "Ashley", "stimulus": "<p class='center-content'>Is this a smile?</p><p class='center-content'><img src='img/Ashley_Affiliation.jpg' height='410' width='730'></img></p>", "expr": "affiliation", "time_elapsed": 43031, "internal_node_id": "0.0-1.0-56.0", "key_press": 80, "trial_index": 57, "gend": "female", "condition": 2}, {"rt": 454, "trial_type": "single-stim", "name": "Joeseph", "stimulus": "<p class='center-content'>Is this a smile?</p><p class='center-content'><img src='img/Joeseph_Reward.jpg' height='410' width='730'></img></p>", "expr": "reward", "time_elapsed": 43500, "internal_node_id": "0.0-1.0-57.0", "key_press": 80, "trial_index": 58, "gend": "male", "condition": 2}, {"rt": 499, "trial_type": "single-stim", "name": "KJ", "stimulus": "<p class='center-content'>Is this a smile?</p><p class='center-content'><img src='img/KJ_Reward.jpg' height='410' width='730'></img></p>", "expr": "reward", "time_elapsed": 43999, "internal_node_id": "0.0-1.0-58.0", "key_press": 80, "trial_index": 59, "gend": "female", "condition": 2}, {"rt": 450, "trial_type": "single-stim", "name": "Ashley", "stimulus": "<p class='center-content'>Is this a smile?</p><p class='center-content'><img src='img/Ashley_Reward.jpg' height='410' width='730'></img></p>", "expr": "reward", "time_elapsed": 44449, "internal_node_id": "0.0-1.0-59.0", "key_press": 80, "trial_index": 60, "gend": "female", "condition": 2}, {"rt": 492, "trial_type": "single-stim", "name": "KJ", "stimulus": "<p class='center-content'>Is this a smile?</p><p class='center-content'><img src='img/KJ_Affiliation.jpg' height='410' width='730'></img></p>", "expr": "affiliation", "time_elapsed": 44941, "internal_node_id": "0.0-1.0-60.0", "key_press": 80, "trial_index": 61, "gend": "female", "condition": 2}, {"rt": 476, "trial_type": "single-stim", "name": "Anthony", "stimulus": "<p class='center-content'>Is this a smile?</p><p class='center-content'><img src='img/Anthony_Reward.jpg' height='410' width='730'></img></p>", "expr": "reward", "time_elapsed": 45417, "internal_node_id": "0.0-1.0-61.0", "key_press": 80, "trial_index": 62, "gend": "male", "condition": 2}, {"rt": 616, "trial_type": "single-stim", "name": "Joeseph", "stimulus": "<p class='center-content'>Is this a smile?</p><p class='center-content'><img src='img/Joeseph_Affiliation.jpg' height='410' width='730'></img></p>", "expr": "affiliation", "time_elapsed": 46033, "internal_node_id": "0.0-1.0-62.0", "key_press": 80, "trial_index": 63, "gend": "male", "condition": 2}, {"rt": 697, "trial_type": "single-stim", "name": "Mary", "stimulus": "<p class='center-content'>Is this a smile?</p><p class='center-content'><img src='img/Mary_Disgust.jpg' height='410' width='730'></img></p>", "expr": "disgust", "time_elapsed": 46730, "internal_node_id": "0.0-1.0-63.0", "key_press": 81, "trial_index": 64, "gend": "female", "condition": 2}, {"rt": 532, "trial_type": "single-stim", "name": "Jessica", "stimulus": "<p class='center-content'>Is this a smile?</p><p class='center-content'><img src='img/Jessica_Affiliation.jpg' height='410' width='730'></img></p>", "expr": "affiliation", "time_elapsed": 47262, "internal_node_id": "0.0-1.0-64.0", "key_press": 80, "trial_index": 65, "gend": "female", "condition": 2}, {"rt": 648, "trial_type": "single-stim", "name": "Lulu", "stimulus": "<p class='center-content'>Is this a smile?</p><p class='center-content'><img src='img/Lulu_Disgust.jpg' height='410' width='730'></img></p>", "expr": "disgust", "time_elapsed": 47925, "internal_node_id": "0.0-1.0-65.0", "key_press": 81, "trial_index": 66, "gend": "female", "condition": 2}, {"rt": 1651, "trial_type": "single-stim", "name": "Zach", "stimulus": "<p class='center-content'>Is this a smile?</p><p class='center-content'><img src='img/Zach_Dominance.jpg' height='410' width='730'></img></p>", "expr": "dominance", "time_elapsed": 49593, "internal_node_id": "0.0-1.0-66.0", "key_press": 81, "trial_index": 67, "gend": "male", "condition": 2}, {"rt": 584, "trial_type": "single-stim", "name": "Zach", "stimulus": "<p class='center-content'>Is this a smile?</p><p class='center-content'><img src='img/Zach_Affiliation.jpg' height='410' width='730'></img></p>", "expr": "affiliation", "time_elapsed": 50177, "internal_node_id": "0.0-1.0-67.0", "key_press": 80, "trial_index": 68, "gend": "male", "condition": 2}, {"rt": 711, "trial_type": "single-stim", "name": "Lulu", "stimulus": "<p class='center-content'>Is this a smile?</p><p class='center-content'><img src='img/Lulu_Reward.jpg' height='410' width='730'></img></p>", "expr": "reward", "time_elapsed": 50888, "internal_node_id": "0.0-1.0-68.0", "key_press": 80, "trial_index": 69, "gend": "female", "condition": 2}, {"rt": 565, "trial_type": "single-stim", "name": "Jourdan", "stimulus": "<p class='center-content'>Is this a smile?</p><p class='center-content'><img src='img/Jourdan_Dominance.jpg' height='410' width='730'></img></p>", "expr": "dominance", "time_elapsed": 51453, "internal_node_id": "0.0-1.0-69.0", "key_press": 80, "trial_index": 70, "gend": "male", "condition": 2}, {"rt": 649, "trial_type": "single-stim", "name": "Mary", "stimulus": "<p class='center-content'>Is this a smile?</p><p class='center-content'><img src='img/Mary.jpg' height='410' width='730'></img></p>", "expr": "neutral", "time_elapsed": 52102, "internal_node_id": "0.0-1.0-70.0", "key_press": 81, "trial_index": 71, "gend": "female", "condition": 2}, {"rt": 625, "trial_type": "single-stim", "name": "Jessica", "stimulus": "<p class='center-content'>Is this a smile?</p><p class='center-content'><img src='img/Jessica.jpg' height='410' width='730'></img></p>", "expr": "neutral", "time_elapsed": 52727, "internal_node_id": "0.0-1.0-71.0", "key_press": 81, "trial_index": 72, "gend": "female", "condition": 2}, {"rt": 693, "trial_type": "single-stim", "name": "Zach", "stimulus": "<p class='center-content'>Is this a smile?</p><p class='center-content'><img src='img/Zach.jpg' height='410' width='730'></img></p>", "expr": "neutral", "time_elapsed": 53436, "internal_node_id": "0.0-1.0-72.0", "key_press": 81, "trial_index": 73, "gend": "male", "condition": 2}, {"rt": 533, "trial_type": "single-stim", "name": "Marcus", "stimulus": "<p class='center-content'>Is this a smile?</p><p class='center-content'><img src='img/Marcus_Disgust.jpg' height='410' width='730'></img></p>", "expr": "disgust", "time_elapsed": 53969, "internal_node_id": "0.0-1.0-73.0", "key_press": 80, "trial_index": 74, "gend": "male", "condition": 2}, {"rt": 1336, "trial_type": "single-stim", "name": "Joeseph", "stimulus": "<p class='center-content'>Is this a smile?</p><p class='center-content'><img src='img/Joeseph.jpg' height='410' width='730'></img></p>", "expr": "neutral", "time_elapsed": 55305, "internal_node_id": "0.0-1.0-74.0", "key_press": 81, "trial_index": 75, "gend": "male", "condition": 2}, {"rt": 5233, "trial_type": "survey-multi-choice", "responses": "{\"Q0\":\"Male\",\"Q1\":\"East Asian/East Asian American (e.g., Chinese, Japanese, Korean)\",\"Q2\":\"Right\"}", "time_elapsed": 60542, "internal_node_id": "0.0-2.0", "trial_index": 76}, {"rt": 1379, "trial_type": "survey-text", "responses": "{\"Q0\":\"no\"}", "time_elapsed": 62957, "internal_node_id": "0.0-3.0", "trial_index": 77}, {"rt": 582, "trial_type": "text", "time_elapsed": 64593, "internal_node_id": "0.0-4.0", "key_press": 32, "trial_index": 78}]}, "AcceptTime": "2017-12-05T21:36:07Z", "HITId": "36BTXXLZ2V8C323I6YLVO01NLPZ4RQ", "Assignment": "", "AssignmentStatus": "Approved", "SubmitTime": "2017-12-05T21:44:28Z"}