{"ApprovalTime": "2017-12-05T21:44:18Z", "AutoApprovalTime": "2017-12-05T21:43:35Z", "AssignmentId": "3HUTX6F6VUN2QVU80VQ4QAV9VEIO28", "WorkerId": "anon26", "answers": {"data": [{"rt": 9968, "trial_type": "text", "time_elapsed": 9971, "internal_node_id": "0.0-0.0", "key_press": 32, "trial_index": 0}, {"rt": 1119, "trial_type": "single-stim", "name": "Lulu", "stimulus": "<p class='center-content'>Is this a smile?</p><p class='center-content'><img src='img/Lulu_Reward.jpg' height='410' width='730'></img></p>", "expr": "reward", "time_elapsed": 13096, "internal_node_id": "0.0-1.0-0.0", "key_press": 81, "trial_index": 1, "gend": "female", "condition": 1}, {"rt": 763, "trial_type": "single-stim", "name": "Mary", "stimulus": "<p class='center-content'>Is this a smile?</p><p class='center-content'><img src='img/Mary_Disgust.jpg' height='410' width='730'></img></p>", "expr": "disgust", "time_elapsed": 13863, "internal_node_id": "0.0-1.0-1.0", "key_press": 80, "trial_index": 2, "gend": "female", "condition": 1}, {"rt": 870, "trial_type": "single-stim", "name": "KJ", "stimulus": "<p class='center-content'>Is this a smile?</p><p class='center-content'><img src='img/KJ.jpg' height='410' width='730'></img></p>", "expr": "neutral", "time_elapsed": 14735, "internal_node_id": "0.0-1.0-2.0", "key_press": 81, "trial_index": 3, "gend": "female", "condition": 1}, {"rt": 590, "trial_type": "single-stim", "name": "Zach", "stimulus": "<p class='center-content'>Is this a smile?</p><p class='center-content'><img src='img/Zach_Affiliation.jpg' height='410' width='730'></img></p>", "expr": "affiliation", "time_elapsed": 15327, "internal_node_id": "0.0-1.0-3.0", "key_press": 81, "trial_index": 4, "gend": "male", "condition": 1}, {"rt": 581, "trial_type": "single-stim", "name": "Maurice", "stimulus": "<p class='center-content'>Is this a smile?</p><p class='center-content'><img src='img/Maurice_Affiliation.jpg' height='410' width='730'></img></p>", "expr": "affiliation", "time_elapsed": 15911, "internal_node_id": "0.0-1.0-4.0", "key_press": 81, "trial_index": 5, "gend": "male", "condition": 1}, {"rt": 886, "trial_type": "single-stim", "name": "Jourdan", "stimulus": "<p class='center-content'>Is this a smile?</p><p class='center-content'><img src='img/Jourdan_Dominance.jpg' height='410' width='730'></img></p>", "expr": "dominance", "time_elapsed": 16799, "internal_node_id": "0.0-1.0-5.0", "key_press": 81, "trial_index": 6, "gend": "male", "condition": 1}, {"rt": 621, "trial_type": "single-stim", "name": "KJ", "stimulus": "<p class='center-content'>Is this a smile?</p><p class='center-content'><img src='img/KJ_Disgust.jpg' height='410' width='730'></img></p>", "expr": "disgust", "time_elapsed": 17423, "internal_node_id": "0.0-1.0-6.0", "key_press": 80, "trial_index": 7, "gend": "female", "condition": 1}, {"rt": 1269, "trial_type": "single-stim", "name": "Anthony", "stimulus": "<p class='center-content'>Is this a smile?</p><p class='center-content'><img src='img/Anthony.jpg' height='410' width='730'></img></p>", "expr": "neutral", "time_elapsed": 18695, "internal_node_id": "0.0-1.0-7.0", "key_press": 81, "trial_index": 8, "gend": "male", "condition": 1}, {"rt": 654, "trial_type": "single-stim", "name": "Lulu", "stimulus": "<p class='center-content'>Is this a smile?</p><p class='center-content'><img src='img/Lulu_Dominance.jpg' height='410' width='730'></img></p>", "expr": "dominance", "time_elapsed": 19351, "internal_node_id": "0.0-1.0-8.0", "key_press": 81, "trial_index": 9, "gend": "female", "condition": 1}, {"rt": 614, "trial_type": "single-stim", "name": "KJ", "stimulus": "<p class='center-content'>Is this a smile?</p><p class='center-content'><img src='img/KJ_Reward.jpg' height='410' width='730'></img></p>", "expr": "reward", "time_elapsed": 19968, "internal_node_id": "0.0-1.0-9.0", "key_press": 81, "trial_index": 10, "gend": "female", "condition": 1}, {"rt": 790, "trial_type": "single-stim", "name": "Andrew", "stimulus": "<p class='center-content'>Is this a smile?</p><p class='center-content'><img src='img/Andrew_Dominance.jpg' height='410' width='730'></img></p>", "expr": "dominance", "time_elapsed": 20761, "internal_node_id": "0.0-1.0-10.0", "key_press": 81, "trial_index": 11, "gend": "male", "condition": 1}, {"rt": 582, "trial_type": "single-stim", "name": "Joeseph", "stimulus": "<p class='center-content'>Is this a smile?</p><p class='center-content'><img src='img/Joeseph_Affiliation.jpg' height='410' width='730'></img></p>", "expr": "affiliation", "time_elapsed": 21345, "internal_node_id": "0.0-1.0-11.0", "key_press": 81, "trial_index": 12, "gend": "male", "condition": 1}, {"rt": 858, "trial_type": "single-stim", "name": "Anthony", "stimulus": "<p class='center-content'>Is this a smile?</p><p class='center-content'><img src='img/Anthony_Dominance.jpg' height='410' width='730'></img></p>", "expr": "dominance", "time_elapsed": 22207, "internal_node_id": "0.0-1.0-12.0", "key_press": 81, "trial_index": 13, "gend": "male", "condition": 1}, {"rt": 622, "trial_type": "single-stim", "name": "Andrew", "stimulus": "<p class='center-content'>Is this a smile?</p><p class='center-content'><img src='img/Andrew_Affiliation.jpg' height='410' width='730'></img></p>", "expr": "affiliation", "time_elapsed": 22831, "internal_node_id": "0.0-1.0-13.0", "key_press": 81, "trial_index": 14, "gend": "male", "condition": 1}, {"rt": 1526, "trial_type": "single-stim", "name": "Ashley", "stimulus": "<p class='center-content'>Is this a smile?</p><p class='center-content'><img src='img/Ashley.jpg' height='410' width='730'></img></p>", "expr": "neutral", "time_elapsed": 24359, "internal_node_id": "0.0-1.0-14.0", "key_press": 80, "trial_index": 15, "gend": "female", "condition": 1}, {"rt": 636, "trial_type": "single-stim", "name": "Ashley", "stimulus": "<p class='center-content'>Is this a smile?</p><p class='center-content'><img src='img/Ashley_Reward.jpg' height='410' width='730'></img></p>", "expr": "reward", "time_elapsed": 24999, "internal_node_id": "0.0-1.0-15.0", "key_press": 81, "trial_index": 16, "gend": "female", "condition": 1}, {"rt": 2573, "trial_type": "single-stim", "name": "Naomi", "stimulus": "<p class='center-content'>Is this a smile?</p><p class='center-content'><img src='img/Naomi_DIsgust.jpg' height='410' width='730'></img></p>", "expr": "disgust", "time_elapsed": 27575, "internal_node_id": "0.0-1.0-16.0", "key_press": 80, "trial_index": 17, "gend": "female", "condition": 1}, {"rt": 942, "trial_type": "single-stim", "name": "Marcus", "stimulus": "<p class='center-content'>Is this a smile?</p><p class='center-content'><img src='img/Marcus_Affiliation.jpg' height='410' width='730'></img></p>", "expr": "affiliation", "time_elapsed": 28519, "internal_node_id": "0.0-1.0-17.0", "key_press": 81, "trial_index": 18, "gend": "male", "condition": 1}, {"rt": 982, "trial_type": "single-stim", "name": "Anna", "stimulus": "<p class='center-content'>Is this a smile?</p><p class='center-content'><img src='img/Anna.jpg' height='410' width='730'></img></p>", "expr": "neutral", "time_elapsed": 29503, "internal_node_id": "0.0-1.0-18.0", "key_press": 81, "trial_index": 19, "gend": "female", "condition": 1}, {"rt": 934, "trial_type": "single-stim", "name": "Jessica", "stimulus": "<p class='center-content'>Is this a smile?</p><p class='center-content'><img src='img/Jessica_Reward.jpg' height='410' width='730'></img></p>", "expr": "reward", "time_elapsed": 30438, "internal_node_id": "0.0-1.0-19.0", "key_press": 81, "trial_index": 20, "gend": "female", "condition": 1}, {"rt": 1001, "trial_type": "single-stim", "name": "Mary", "stimulus": "<p class='center-content'>Is this a smile?</p><p class='center-content'><img src='img/Mary_Dominance.jpg' height='410' width='730'></img></p>", "expr": "dominance", "time_elapsed": 31441, "internal_node_id": "0.0-1.0-20.0", "key_press": 81, "trial_index": 21, "gend": "female", "condition": 1}, {"rt": 883, "trial_type": "single-stim", "name": "Anna", "stimulus": "<p class='center-content'>Is this a smile?</p><p class='center-content'><img src='img/Anna_Reward.jpg' height='410' width='730'></img></p>", "expr": "reward", "time_elapsed": 32326, "internal_node_id": "0.0-1.0-21.0", "key_press": 81, "trial_index": 22, "gend": "female", "condition": 1}, {"rt": 1014, "trial_type": "single-stim", "name": "Naomi", "stimulus": "<p class='center-content'>Is this a smile?</p><p class='center-content'><img src='img/Naomi_Dominance.jpg' height='410' width='730'></img></p>", "expr": "dominance", "time_elapsed": 33342, "internal_node_id": "0.0-1.0-22.0", "key_press": 81, "trial_index": 23, "gend": "female", "condition": 1}, {"rt": 917, "trial_type": "single-stim", "name": "Andrew", "stimulus": "<p class='center-content'>Is this a smile?</p><p class='center-content'><img src='img/Andrew_Disgust.jpg' height='410' width='730'></img></p>", "expr": "disgust", "time_elapsed": 34263, "internal_node_id": "0.0-1.0-23.0", "key_press": 80, "trial_index": 24, "gend": "male", "condition": 1}, {"rt": 846, "trial_type": "single-stim", "name": "Anna", "stimulus": "<p class='center-content'>Is this a smile?</p><p class='center-content'><img src='img/Anna_Disgust.jpg' height='410' width='730'></img></p>", "expr": "disgust", "time_elapsed": 35111, "internal_node_id": "0.0-1.0-24.0", "key_press": 80, "trial_index": 25, "gend": "female", "condition": 1}, {"rt": 789, "trial_type": "single-stim", "name": "Marcus", "stimulus": "<p class='center-content'>Is this a smile?</p><p class='center-content'><img src='img/Marcus_Dominance.jpg' height='410' width='730'></img></p>", "expr": "dominance", "time_elapsed": 35903, "internal_node_id": "0.0-1.0-25.0", "key_press": 80, "trial_index": 26, "gend": "male", "condition": 1}, {"rt": 967, "trial_type": "single-stim", "name": "Dmonte", "stimulus": "<p class='center-content'>Is this a smile?</p><p class='center-content'><img src='img/Dmonte_Reward.jpg' height='410' width='730'></img></p>", "expr": "reward", "time_elapsed": 36871, "internal_node_id": "0.0-1.0-26.0", "key_press": 81, "trial_index": 27, "gend": "male", "condition": 1}, {"rt": 830, "trial_type": "single-stim", "name": "Maurice", "stimulus": "<p class='center-content'>Is this a smile?</p><p class='center-content'><img src='img/Maurice.jpg' height='410' width='730'></img></p>", "expr": "neutral", "time_elapsed": 37703, "internal_node_id": "0.0-1.0-27.0", "key_press": 80, "trial_index": 28, "gend": "male", "condition": 1}, {"rt": 1214, "trial_type": "single-stim", "name": "Andrew", "stimulus": "<p class='center-content'>Is this a smile?</p><p class='center-content'><img src='img/Andrew_Reward.jpg' height='410' width='730'></img></p>", "expr": "reward", "time_elapsed": 38919, "internal_node_id": "0.0-1.0-28.0", "key_press": 81, "trial_index": 29, "gend": "male", "condition": 1}, {"rt": 783, "trial_type": "single-stim", "name": "Jessica", "stimulus": "<p class='center-content'>Is this a smile?</p><p class='center-content'><img src='img/Jessica_Disgust.jpg' height='410' width='730'></img></p>", "expr": "disgust", "time_elapsed": 39703, "internal_node_id": "0.0-1.0-29.0", "key_press": 80, "trial_index": 30, "gend": "female", "condition": 1}, {"rt": 926, "trial_type": "single-stim", "name": "Mary", "stimulus": "<p class='center-content'>Is this a smile?</p><p class='center-content'><img src='img/Mary_Affiliation.jpg' height='410' width='730'></img></p>", "expr": "affiliation", "time_elapsed": 40630, "internal_node_id": "0.0-1.0-30.0", "key_press": 81, "trial_index": 31, "gend": "female", "condition": 1}, {"rt": 1240, "trial_type": "single-stim", "name": "Zach", "stimulus": "<p class='center-content'>Is this a smile?</p><p class='center-content'><img src='img/Zach.jpg' height='410' width='730'></img></p>", "expr": "neutral", "time_elapsed": 41872, "internal_node_id": "0.0-1.0-31.0", "key_press": 80, "trial_index": 32, "gend": "male", "condition": 1}, {"rt": 804, "trial_type": "single-stim", "name": "Jessica", "stimulus": "<p class='center-content'>Is this a smile?</p><p class='center-content'><img src='img/Jessica.jpg' height='410' width='730'></img></p>", "expr": "neutral", "time_elapsed": 42678, "internal_node_id": "0.0-1.0-32.0", "key_press": 80, "trial_index": 33, "gend": "female", "condition": 1}, {"rt": 838, "trial_type": "single-stim", "name": "Maurice", "stimulus": "<p class='center-content'>Is this a smile?</p><p class='center-content'><img src='img/Maurice_Reward.jpg' height='410' width='730'></img></p>", "expr": "reward", "time_elapsed": 43519, "internal_node_id": "0.0-1.0-33.0", "key_press": 81, "trial_index": 34, "gend": "male", "condition": 1}, {"rt": 974, "trial_type": "single-stim", "name": "Joeseph", "stimulus": "<p class='center-content'>Is this a smile?</p><p class='center-content'><img src='img/Joeseph_Disgust.jpg' height='410' width='730'></img></p>", "expr": "disgust", "time_elapsed": 44495, "internal_node_id": "0.0-1.0-34.0", "key_press": 80, "trial_index": 35, "gend": "male", "condition": 1}, {"rt": 2111, "trial_type": "single-stim", "name": "Anna", "stimulus": "<p class='center-content'>Is this a smile?</p><p class='center-content'><img src='img/Anna_Dominance.jpg' height='410' width='730'></img></p>", "expr": "dominance", "time_elapsed": 46608, "internal_node_id": "0.0-1.0-35.0", "key_press": 81, "trial_index": 36, "gend": "female", "condition": 1}, {"rt": 1348, "trial_type": "single-stim", "name": "Ashley", "stimulus": "<p class='center-content'>Is this a smile?</p><p class='center-content'><img src='img/Ashley_Affiliation.jpg' height='410' width='730'></img></p>", "expr": "affiliation", "time_elapsed": 47958, "internal_node_id": "0.0-1.0-36.0", "key_press": 81, "trial_index": 37, "gend": "female", "condition": 1}, {"rt": 838, "trial_type": "single-stim", "name": "Dmonte", "stimulus": "<p class='center-content'>Is this a smile?</p><p class='center-content'><img src='img/Dmonte_Disgust.jpg' height='410' width='730'></img></p>", "expr": "disgust", "time_elapsed": 48798, "internal_node_id": "0.0-1.0-37.0", "key_press": 80, "trial_index": 38, "gend": "male", "condition": 1}, {"rt": 934, "trial_type": "single-stim", "name": "Dmonte", "stimulus": "<p class='center-content'>Is this a smile?</p><p class='center-content'><img src='img/Dmonte.jpg' height='410' width='730'></img></p>", "expr": "neutral", "time_elapsed": 49734, "internal_node_id": "0.0-1.0-38.0", "key_press": 80, "trial_index": 39, "gend": "male", "condition": 1}, {"rt": 750, "trial_type": "single-stim", "name": "Dmonte", "stimulus": "<p class='center-content'>Is this a smile?</p><p class='center-content'><img src='img/Dmonte_Affiliation.jpg' height='410' width='730'></img></p>", "expr": "affiliation", "time_elapsed": 50487, "internal_node_id": "0.0-1.0-39.0", "key_press": 81, "trial_index": 40, "gend": "male", "condition": 1}, {"rt": 1400, "trial_type": "single-stim", "name": "Joeseph", "stimulus": "<p class='center-content'>Is this a smile?</p><p class='center-content'><img src='img/Joeseph.jpg' height='410' width='730'></img></p>", "expr": "neutral", "time_elapsed": 51888, "internal_node_id": "0.0-1.0-40.0", "key_press": 80, "trial_index": 41, "gend": "male", "condition": 1}, {"rt": 1115, "trial_type": "single-stim", "name": "Marcus", "stimulus": "<p class='center-content'>Is this a smile?</p><p class='center-content'><img src='img/Marcus_Disgust.jpg' height='410' width='730'></img></p>", "expr": "disgust", "time_elapsed": 53007, "internal_node_id": "0.0-1.0-41.0", "key_press": 80, "trial_index": 42, "gend": "male", "condition": 1}, {"rt": 869, "trial_type": "single-stim", "name": "Marcus", "stimulus": "<p class='center-content'>Is this a smile?</p><p class='center-content'><img src='img/Marcus_Reward.jpg' height='410' width='730'></img></p>", "expr": "reward", "time_elapsed": 53879, "internal_node_id": "0.0-1.0-42.0", "key_press": 81, "trial_index": 43, "gend": "male", "condition": 1}, {"rt": 1078, "trial_type": "single-stim", "name": "Joeseph", "stimulus": "<p class='center-content'>Is this a smile?</p><p class='center-content'><img src='img/Joeseph_Dominance.jpg' height='410' width='730'></img></p>", "expr": "dominance", "time_elapsed": 54958, "internal_node_id": "0.0-1.0-43.0", "key_press": 81, "trial_index": 44, "gend": "male", "condition": 1}, {"rt": 710, "trial_type": "single-stim", "name": "KJ", "stimulus": "<p class='center-content'>Is this a smile?</p><p class='center-content'><img src='img/KJ_Dominance.jpg' height='410' width='730'></img></p>", "expr": "dominance", "time_elapsed": 55670, "internal_node_id": "0.0-1.0-44.0", "key_press": 81, "trial_index": 45, "gend": "female", "condition": 1}, {"rt": 1391, "trial_type": "single-stim", "name": "Mary", "stimulus": "<p class='center-content'>Is this a smile?</p><p class='center-content'><img src='img/Mary_Reward.jpg' height='410' width='730'></img></p>", "expr": "reward", "time_elapsed": 57063, "internal_node_id": "0.0-1.0-45.0", "key_press": 81, "trial_index": 46, "gend": "female", "condition": 1}, {"rt": 1965, "trial_type": "single-stim", "name": "Lulu", "stimulus": "<p class='center-content'>Is this a smile?</p><p class='center-content'><img src='img/Lulu_Affiliation.jpg' height='410' width='730'></img></p>", "expr": "affiliation", "time_elapsed": 59030, "internal_node_id": "0.0-1.0-46.0", "key_press": 80, "trial_index": 47, "gend": "female", "condition": 1}, {"rt": 1198, "trial_type": "single-stim", "name": "Ashley", "stimulus": "<p class='center-content'>Is this a smile?</p><p class='center-content'><img src='img/Ashley_Dominance.jpg' height='410' width='730'></img></p>", "expr": "dominance", "time_elapsed": 60230, "internal_node_id": "0.0-1.0-47.0", "key_press": 80, "trial_index": 48, "gend": "female", "condition": 1}, {"rt": 918, "trial_type": "single-stim", "name": "Jourdan", "stimulus": "<p class='center-content'>Is this a smile?</p><p class='center-content'><img src='img/Jourdan.jpg' height='410' width='730'></img></p>", "expr": "neutral", "time_elapsed": 61151, "internal_node_id": "0.0-1.0-48.0", "key_press": 80, "trial_index": 49, "gend": "male", "condition": 1}, {"rt": 1889, "trial_type": "single-stim", "name": "Maurice", "stimulus": "<p class='center-content'>Is this a smile?</p><p class='center-content'><img src='img/Maurice_Dominance.jpg' height='410' width='730'></img></p>", "expr": "dominance", "time_elapsed": 63041, "internal_node_id": "0.0-1.0-49.0", "key_press": 81, "trial_index": 50, "gend": "male", "condition": 1}, {"rt": 1444, "trial_type": "single-stim", "name": "Lulu", "stimulus": "<p class='center-content'>Is this a smile?</p><p class='center-content'><img src='img/Lulu.jpg' height='410' width='730'></img></p>", "expr": "neutral", "time_elapsed": 64487, "internal_node_id": "0.0-1.0-50.0", "key_press": 80, "trial_index": 51, "gend": "female", "condition": 1}, {"rt": 1494, "trial_type": "single-stim", "name": "Jourdan", "stimulus": "<p class='center-content'>Is this a smile?</p><p class='center-content'><img src='img/Jourdan_Reward.jpg' height='410' width='730'></img></p>", "expr": "reward", "time_elapsed": 65983, "internal_node_id": "0.0-1.0-51.0", "key_press": 81, "trial_index": 52, "gend": "male", "condition": 1}, {"rt": 1773, "trial_type": "single-stim", "name": "Zach", "stimulus": "<p class='center-content'>Is this a smile?</p><p class='center-content'><img src='img/Zach_Reward.jpg' height='410' width='730'></img></p>", "expr": "reward", "time_elapsed": 67759, "internal_node_id": "0.0-1.0-52.0", "key_press": 81, "trial_index": 53, "gend": "male", "condition": 1}, {"rt": 1814, "trial_type": "single-stim", "name": "Ashley", "stimulus": "<p class='center-content'>Is this a smile?</p><p class='center-content'><img src='img/Ashley_Disgust.jpg' height='410' width='730'></img></p>", "expr": "disgust", "time_elapsed": 69575, "internal_node_id": "0.0-1.0-53.0", "key_press": 80, "trial_index": 54, "gend": "female", "condition": 1}, {"rt": 716, "trial_type": "single-stim", "name": "Mary", "stimulus": "<p class='center-content'>Is this a smile?</p><p class='center-content'><img src='img/Mary.jpg' height='410' width='730'></img></p>", "expr": "neutral", "time_elapsed": 70295, "internal_node_id": "0.0-1.0-54.0", "key_press": 80, "trial_index": 55, "gend": "female", "condition": 1}, {"rt": 669, "trial_type": "single-stim", "name": "Maurice", "stimulus": "<p class='center-content'>Is this a smile?</p><p class='center-content'><img src='img/Maurice_Disgust.jpg' height='410' width='730'></img></p>", "expr": "disgust", "time_elapsed": 70967, "internal_node_id": "0.0-1.0-55.0", "key_press": 80, "trial_index": 56, "gend": "male", "condition": 1}, {"rt": 590, "trial_type": "single-stim", "name": "Zach", "stimulus": "<p class='center-content'>Is this a smile?</p><p class='center-content'><img src='img/Zach_Dominance.jpg' height='410' width='730'></img></p>", "expr": "dominance", "time_elapsed": 71561, "internal_node_id": "0.0-1.0-56.0", "key_press": 80, "trial_index": 57, "gend": "male", "condition": 1}, {"rt": 759, "trial_type": "single-stim", "name": "Zach", "stimulus": "<p class='center-content'>Is this a smile?</p><p class='center-content'><img src='img/Zach_Disgust.jpg' height='410' width='730'></img></p>", "expr": "disgust", "time_elapsed": 72326, "internal_node_id": "0.0-1.0-57.0", "key_press": 80, "trial_index": 58, "gend": "male", "condition": 1}, {"rt": 655, "trial_type": "single-stim", "name": "Jourdan", "stimulus": "<p class='center-content'>Is this a smile?</p><p class='center-content'><img src='img/Jourdan_Affiliation.jpg' height='410' width='730'></img></p>", "expr": "affiliation", "time_elapsed": 72983, "internal_node_id": "0.0-1.0-58.0", "key_press": 81, "trial_index": 59, "gend": "male", "condition": 1}, {"rt": 928, "trial_type": "single-stim", "name": "Dmonte", "stimulus": "<p class='center-content'>Is this a smile?</p><p class='center-content'><img src='img/Dmonte_Dominance.jpg' height='410' width='730'></img></p>", "expr": "dominance", "time_elapsed": 73913, "internal_node_id": "0.0-1.0-59.0", "key_press": 81, "trial_index": 60, "gend": "male", "condition": 1}, {"rt": 803, "trial_type": "single-stim", "name": "Naomi", "stimulus": "<p class='center-content'>Is this a smile?</p><p class='center-content'><img src='img/Naomi.jpg' height='410' width='730'></img></p>", "expr": "neutral", "time_elapsed": 74719, "internal_node_id": "0.0-1.0-60.0", "key_press": 81, "trial_index": 61, "gend": "female", "condition": 1}, {"rt": 894, "trial_type": "single-stim", "name": "Jessica", "stimulus": "<p class='center-content'>Is this a smile?</p><p class='center-content'><img src='img/Jessica_Affiliation.jpg' height='410' width='730'></img></p>", "expr": "affiliation", "time_elapsed": 75615, "internal_node_id": "0.0-1.0-61.0", "key_press": 81, "trial_index": 62, "gend": "female", "condition": 1}, {"rt": 950, "trial_type": "single-stim", "name": "Lulu", "stimulus": "<p class='center-content'>Is this a smile?</p><p class='center-content'><img src='img/Lulu_Disgust.jpg' height='410' width='730'></img></p>", "expr": "disgust", "time_elapsed": 76567, "internal_node_id": "0.0-1.0-62.0", "key_press": 80, "trial_index": 63, "gend": "female", "condition": 1}, {"rt": 830, "trial_type": "single-stim", "name": "Anthony", "stimulus": "<p class='center-content'>Is this a smile?</p><p class='center-content'><img src='img/Anthony_Disgust.jpg' height='410' width='730'></img></p>", "expr": "disgust", "time_elapsed": 77398, "internal_node_id": "0.0-1.0-63.0", "key_press": 80, "trial_index": 64, "gend": "male", "condition": 1}, {"rt": 735, "trial_type": "single-stim", "name": "Naomi", "stimulus": "<p class='center-content'>Is this a smile?</p><p class='center-content'><img src='img/Naomi_Reward.jpg' height='410' width='730'></img></p>", "expr": "reward", "time_elapsed": 78135, "internal_node_id": "0.0-1.0-64.0", "key_press": 81, "trial_index": 65, "gend": "female", "condition": 1}, {"rt": 1950, "trial_type": "single-stim", "name": "KJ", "stimulus": "<p class='center-content'>Is this a smile?</p><p class='center-content'><img src='img/KJ_Affiliation.jpg' height='410' width='730'></img></p>", "expr": "affiliation", "time_elapsed": 80086, "internal_node_id": "0.0-1.0-65.0", "key_press": 81, "trial_index": 66, "gend": "female", "condition": 1}, {"rt": 823, "trial_type": "single-stim", "name": "Joeseph", "stimulus": "<p class='center-content'>Is this a smile?</p><p class='center-content'><img src='img/Joeseph_Reward.jpg' height='410' width='730'></img></p>", "expr": "reward", "time_elapsed": 80911, "internal_node_id": "0.0-1.0-66.0", "key_press": 81, "trial_index": 67, "gend": "male", "condition": 1}, {"rt": 661, "trial_type": "single-stim", "name": "Anthony", "stimulus": "<p class='center-content'>Is this a smile?</p><p class='center-content'><img src='img/Anthony_Reward.jpg' height='410' width='730'></img></p>", "expr": "reward", "time_elapsed": 81574, "internal_node_id": "0.0-1.0-67.0", "key_press": 81, "trial_index": 68, "gend": "male", "condition": 1}, {"rt": 566, "trial_type": "single-stim", "name": "Andrew", "stimulus": "<p class='center-content'>Is this a smile?</p><p class='center-content'><img src='img/Andrew.jpg' height='410' width='730'></img></p>", "expr": "neutral", "time_elapsed": 82142, "internal_node_id": "0.0-1.0-68.0", "key_press": 80, "trial_index": 69, "gend": "male", "condition": 1}, {"rt": 942, "trial_type": "single-stim", "name": "Marcus", "stimulus": "<p class='center-content'>Is this a smile?</p><p class='center-content'><img src='img/Marcus.jpg' height='410' width='730'></img></p>", "expr": "neutral", "time_elapsed": 83087, "internal_node_id": "0.0-1.0-69.0", "key_press": 80, "trial_index": 70, "gend": "male", "condition": 1}, {"rt": 710, "trial_type": "single-stim", "name": "Jourdan", "stimulus": "<p class='center-content'>Is this a smile?</p><p class='center-content'><img src='img/Jourdan_Disgust.jpg' height='410' width='730'></img></p>", "expr": "disgust", "time_elapsed": 83799, "internal_node_id": "0.0-1.0-70.0", "key_press": 80, "trial_index": 71, "gend": "male", "condition": 1}, {"rt": 856, "trial_type": "single-stim", "name": "Anthony", "stimulus": "<p class='center-content'>Is this a smile?</p><p class='center-content'><img src='img/Anthony_Affiliation.jpg' height='410' width='730'></img></p>", "expr": "affiliation", "time_elapsed": 84656, "internal_node_id": "0.0-1.0-71.0", "key_press": 80, "trial_index": 72, "gend": "male", "condition": 1}, {"rt": 729, "trial_type": "single-stim", "name": "Jessica", "stimulus": "<p class='center-content'>Is this a smile?</p><p class='center-content'><img src='img/Jessica_Dominance.jpg' height='410' width='730'></img></p>", "expr": "dominance", "time_elapsed": 85390, "internal_node_id": "0.0-1.0-72.0", "key_press": 81, "trial_index": 73, "gend": "female", "condition": 1}, {"rt": 1325, "trial_type": "single-stim", "name": "Naomi", "stimulus": "<p class='center-content'>Is this a smile?</p><p class='center-content'><img src='img/Naomi_Affiliation.jpg' height='410' width='730'></img></p>", "expr": "affiliation", "time_elapsed": 86718, "internal_node_id": "0.0-1.0-73.0", "key_press": 81, "trial_index": 74, "gend": "female", "condition": 1}, {"rt": 695, "trial_type": "single-stim", "name": "Anna", "stimulus": "<p class='center-content'>Is this a smile?</p><p class='center-content'><img src='img/Anna_Affiliation.jpg' height='410' width='730'></img></p>", "expr": "affiliation", "time_elapsed": 87414, "internal_node_id": "0.0-1.0-74.0", "key_press": 81, "trial_index": 75, "gend": "female", "condition": 1}, {"rt": 7103, "trial_type": "survey-multi-choice", "responses": "{\"Q0\":\"Female\",\"Q1\":\"White/Caucasian/European American\",\"Q2\":\"Right\"}", "time_elapsed": 94532, "internal_node_id": "0.0-2.0", "trial_index": 76}, {"rt": 4262, "trial_type": "survey-text", "responses": "{\"Q0\":\"no\"}", "time_elapsed": 99797, "internal_node_id": "0.0-3.0", "trial_index": 77}, {"rt": 3031, "trial_type": "text", "time_elapsed": 103831, "internal_node_id": "0.0-4.0", "key_press": 32, "trial_index": 78}]}, "AcceptTime": "2017-12-05T21:36:08Z", "HITId": "36BTXXLZ2V8C323I6YLVO01NLPZ4RQ", "Assignment": "", "AssignmentStatus": "Approved", "SubmitTime": "2017-12-05T21:38:35Z"}