{
    "AutoApprovalTime": "2017-11-18T01:36:18Z",
    "AssignmentId": "3JPSL1DZ5TJFKATLCA97YYRFU1BNA5",
    "WorkerId": "subject2",
    "answers": {
        "data": 
[
 {
  "rt": 69441,
  "key_press": 13,
  "trial_type": "text",
  "trial_index": 0,
  "time_elapsed": 69444,
  "internal_node_id": "0.0-0.0"
 },
 {
  "rt": 10527,
  "stimulus": "<p class='center-content'>Is this a smile?</p><p class='center-content'><img src='img/KJ_Disgust.jpg' height='410' width='730'></img></p>",
  "key_press": 81,
  "expr": "disgust",
  "gend": "female",
  "name": "KJ",
  "trial_type": "single-stim",
  "trial_index": 1,
  "time_elapsed": 81980,
  "internal_node_id": "0.0-1.0-0.0",
  "condition": 2
 },
 {
  "rt": 3667,
  "stimulus": "<p class='center-content'>Is this a smile?</p><p class='center-content'><img src='img/Anthony.jpg' height='410' width='730'></img></p>",
  "key_press": 81,
  "expr": "neutral",
  "gend": "male",
  "name": "Anthony",
  "trial_type": "single-stim",
  "trial_index": 2,
  "time_elapsed": 86654,
  "internal_node_id": "0.0-1.0-1.0",
  "condition": 2
 },
 {
  "rt": 8249,
  "stimulus": "<p class='center-content'>Is this a smile?</p><p class='center-content'><img src='img/Anna_Dominance.jpg' height='410' width='730'></img></p>",
  "key_press": 81,
  "expr": "dominance",
  "gend": "female",
  "name": "Anna",
  "trial_type": "single-stim",
  "trial_index": 3,
  "time_elapsed": 95909,
  "internal_node_id": "0.0-1.0-2.0",
  "condition": 2
 },
 {
  "rt": 2051,
  "stimulus": "<p class='center-content'>Is this a smile?</p><p class='center-content'><img src='img/Lulu.jpg' height='410' width='730'></img></p>",
  "key_press": 81,
  "expr": "neutral",
  "gend": "female",
  "name": "Lulu",
  "trial_type": "single-stim",
  "trial_index": 4,
  "time_elapsed": 98965,
  "internal_node_id": "0.0-1.0-3.0",
  "condition": 2
 },
 {
  "rt": 3542,
  "stimulus": "<p class='center-content'>Is this a smile?</p><p class='center-content'><img src='img/Marcus_Dominance.jpg' height='410' width='730'></img></p>",
  "key_press": 81,
  "expr": "dominance",
  "gend": "male",
  "name": "Marcus",
  "trial_type": "single-stim",
  "trial_index": 5,
  "time_elapsed": 103511,
  "internal_node_id": "0.0-1.0-4.0",
  "condition": 2
 },
 {
  "rt": 7657,
  "stimulus": "<p class='center-content'>Is this a smile?</p><p class='center-content'><img src='img/KJ_Affiliation.jpg' height='410' width='730'></img></p>",
  "key_press": 80,
  "expr": "affiliation",
  "gend": "female",
  "name": "KJ",
  "trial_type": "single-stim",
  "trial_index": 6,
  "time_elapsed": 112171,
  "internal_node_id": "0.0-1.0-5.0",
  "condition": 2
 },
 {
  "rt": 1915,
  "stimulus": "<p class='center-content'>Is this a smile?</p><p class='center-content'><img src='img/Zach_Disgust.jpg' height='410' width='730'></img></p>",
  "key_press": 81,
  "expr": "disgust",
  "gend": "male",
  "name": "Zach",
  "trial_type": "single-stim",
  "trial_index": 7,
  "time_elapsed": 115090,
  "internal_node_id": "0.0-1.0-6.0",
  "condition": 2
 },
 {
  "rt": 1756,
  "stimulus": "<p class='center-content'>Is this a smile?</p><p class='center-content'><img src='img/KJ.jpg' height='410' width='730'></img></p>",
  "key_press": 81,
  "expr": "neutral",
  "gend": "female",
  "name": "KJ",
  "trial_type": "single-stim",
  "trial_index": 8,
  "time_elapsed": 117850,
  "internal_node_id": "0.0-1.0-7.0",
  "condition": 2
 },
 {
  "rt": 4766,
  "stimulus": "<p class='center-content'>Is this a smile?</p><p class='center-content'><img src='img/Maurice_Affiliation.jpg' height='410' width='730'></img></p>",
  "key_press": 80,
  "expr": "affiliation",
  "gend": "male",
  "name": "Maurice",
  "trial_type": "single-stim",
  "trial_index": 9,
  "time_elapsed": 123621,
  "internal_node_id": "0.0-1.0-8.0",
  "condition": 2
 },
 {
  "rt": 3626,
  "stimulus": "<p class='center-content'>Is this a smile?</p><p class='center-content'><img src='img/Joeseph_Dominance.jpg' height='410' width='730'></img></p>",
  "key_press": 81,
  "expr": "dominance",
  "gend": "male",
  "name": "Joeseph",
  "trial_type": "single-stim",
  "trial_index": 10,
  "time_elapsed": 128251,
  "internal_node_id": "0.0-1.0-9.0",
  "condition": 2
 },
 {
  "rt": 2002,
  "stimulus": "<p class='center-content'>Is this a smile?</p><p class='center-content'><img src='img/Marcus.jpg' height='410' width='730'></img></p>",
  "key_press": 81,
  "expr": "neutral",
  "gend": "male",
  "name": "Marcus",
  "trial_type": "single-stim",
  "trial_index": 11,
  "time_elapsed": 131259,
  "internal_node_id": "0.0-1.0-10.0",
  "condition": 2
 },
 {
  "rt": 8281,
  "stimulus": "<p class='center-content'>Is this a smile?</p><p class='center-content'><img src='img/Anthony_Affiliation.jpg' height='410' width='730'></img></p>",
  "key_press": 80,
  "expr": "affiliation",
  "gend": "male",
  "name": "Anthony",
  "trial_type": "single-stim",
  "trial_index": 12,
  "time_elapsed": 140545,
  "internal_node_id": "0.0-1.0-11.0",
  "condition": 2
 },
 {
  "rt": 7370,
  "stimulus": "<p class='center-content'>Is this a smile?</p><p class='center-content'><img src='img/Mary_Reward.jpg' height='410' width='730'></img></p>",
  "key_press": 80,
  "expr": "reward",
  "gend": "female",
  "name": "Mary",
  "trial_type": "single-stim",
  "trial_index": 13,
  "time_elapsed": 148918,
  "internal_node_id": "0.0-1.0-12.0",
  "condition": 2
 },
 {
  "rt": 2116,
  "stimulus": "<p class='center-content'>Is this a smile?</p><p class='center-content'><img src='img/Jourdan_Affiliation.jpg' height='410' width='730'></img></p>",
  "key_press": 80,
  "expr": "affiliation",
  "gend": "male",
  "name": "Jourdan",
  "trial_type": "single-stim",
  "trial_index": 14,
  "time_elapsed": 152039,
  "internal_node_id": "0.0-1.0-13.0",
  "condition": 2
 },
 {
  "rt": 1489,
  "stimulus": "<p class='center-content'>Is this a smile?</p><p class='center-content'><img src='img/Lulu_Reward.jpg' height='410' width='730'></img></p>",
  "key_press": 80,
  "expr": "reward",
  "gend": "female",
  "name": "Lulu",
  "trial_type": "single-stim",
  "trial_index": 15,
  "time_elapsed": 154535,
  "internal_node_id": "0.0-1.0-14.0",
  "condition": 2
 },
 {
  "rt": 2828,
  "stimulus": "<p class='center-content'>Is this a smile?</p><p class='center-content'><img src='img/Dmonte.jpg' height='410' width='730'></img></p>",
  "key_press": 81,
  "expr": "neutral",
  "gend": "male",
  "name": "Dmonte",
  "trial_type": "single-stim",
  "trial_index": 16,
  "time_elapsed": 158366,
  "internal_node_id": "0.0-1.0-15.0",
  "condition": 2
 },
 {
  "rt": 2474,
  "stimulus": "<p class='center-content'>Is this a smile?</p><p class='center-content'><img src='img/Marcus_Reward.jpg' height='410' width='730'></img></p>",
  "key_press": 80,
  "expr": "reward",
  "gend": "male",
  "name": "Marcus",
  "trial_type": "single-stim",
  "trial_index": 17,
  "time_elapsed": 161846,
  "internal_node_id": "0.0-1.0-16.0",
  "condition": 2
 },
 {
  "rt": 1863,
  "stimulus": "<p class='center-content'>Is this a smile?</p><p class='center-content'><img src='img/KJ_Reward.jpg' height='410' width='730'></img></p>",
  "key_press": 80,
  "expr": "reward",
  "gend": "female",
  "name": "KJ",
  "trial_type": "single-stim",
  "trial_index": 18,
  "time_elapsed": 164711,
  "internal_node_id": "0.0-1.0-17.0",
  "condition": 2
 },
 {
  "rt": 5226,
  "stimulus": "<p class='center-content'>Is this a smile?</p><p class='center-content'><img src='img/Naomi_Affiliation.jpg' height='410' width='730'></img></p>",
  "key_press": 80,
  "expr": "affiliation",
  "gend": "female",
  "name": "Naomi",
  "trial_type": "single-stim",
  "trial_index": 19,
  "time_elapsed": 170941,
  "internal_node_id": "0.0-1.0-18.0",
  "condition": 2
 },
 {
  "rt": 4757,
  "stimulus": "<p class='center-content'>Is this a smile?</p><p class='center-content'><img src='img/Anna.jpg' height='410' width='730'></img></p>",
  "key_press": 81,
  "expr": "neutral",
  "gend": "female",
  "name": "Anna",
  "trial_type": "single-stim",
  "trial_index": 20,
  "time_elapsed": 176702,
  "internal_node_id": "0.0-1.0-19.0",
  "condition": 2
 },
 {
  "rt": 2561,
  "stimulus": "<p class='center-content'>Is this a smile?</p><p class='center-content'><img src='img/Joeseph_Reward.jpg' height='410' width='730'></img></p>",
  "key_press": 80,
  "expr": "reward",
  "gend": "male",
  "name": "Joeseph",
  "trial_type": "single-stim",
  "trial_index": 21,
  "time_elapsed": 180269,
  "internal_node_id": "0.0-1.0-20.0",
  "condition": 2
 },
 {
  "rt": 3819,
  "stimulus": "<p class='center-content'>Is this a smile?</p><p class='center-content'><img src='img/Anna_Disgust.jpg' height='410' width='730'></img></p>",
  "key_press": 81,
  "expr": "disgust",
  "gend": "female",
  "name": "Anna",
  "trial_type": "single-stim",
  "trial_index": 22,
  "time_elapsed": 185094,
  "internal_node_id": "0.0-1.0-21.0",
  "condition": 2
 },
 {
  "rt": 2525,
  "stimulus": "<p class='center-content'>Is this a smile?</p><p class='center-content'><img src='img/Andrew_Disgust.jpg' height='410' width='730'></img></p>",
  "key_press": 81,
  "expr": "disgust",
  "gend": "male",
  "name": "Andrew",
  "trial_type": "single-stim",
  "trial_index": 23,
  "time_elapsed": 188623,
  "internal_node_id": "0.0-1.0-22.0",
  "condition": 2
 },
 {
  "rt": 2483,
  "stimulus": "<p class='center-content'>Is this a smile?</p><p class='center-content'><img src='img/Joeseph.jpg' height='410' width='730'></img></p>",
  "key_press": 81,
  "expr": "neutral",
  "gend": "male",
  "name": "Joeseph",
  "trial_type": "single-stim",
  "trial_index": 24,
  "time_elapsed": 192110,
  "internal_node_id": "0.0-1.0-23.0",
  "condition": 2
 },
 {
  "rt": 6169,
  "stimulus": "<p class='center-content'>Is this a smile?</p><p class='center-content'><img src='img/Mary_Affiliation.jpg' height='410' width='730'></img></p>",
  "key_press": 80,
  "expr": "affiliation",
  "gend": "female",
  "name": "Mary",
  "trial_type": "single-stim",
  "trial_index": 25,
  "time_elapsed": 199285,
  "internal_node_id": "0.0-1.0-24.0",
  "condition": 2
 },
 {
  "rt": 10409,
  "stimulus": "<p class='center-content'>Is this a smile?</p><p class='center-content'><img src='img/Anthony_Dominance.jpg' height='410' width='730'></img></p>",
  "key_press": 81,
  "expr": "dominance",
  "gend": "male",
  "name": "Anthony",
  "trial_type": "single-stim",
  "trial_index": 26,
  "time_elapsed": 210697,
  "internal_node_id": "0.0-1.0-25.0",
  "condition": 2
 },
 {
  "rt": 1684,
  "stimulus": "<p class='center-content'>Is this a smile?</p><p class='center-content'><img src='img/Jessica_Disgust.jpg' height='410' width='730'></img></p>",
  "key_press": 81,
  "expr": "disgust",
  "gend": "female",
  "name": "Jessica",
  "trial_type": "single-stim",
  "trial_index": 27,
  "time_elapsed": 213385,
  "internal_node_id": "0.0-1.0-26.0",
  "condition": 2
 },
 {
  "rt": 1396,
  "stimulus": "<p class='center-content'>Is this a smile?</p><p class='center-content'><img src='img/Lulu_Disgust.jpg' height='410' width='730'></img></p>",
  "key_press": 81,
  "expr": "disgust",
  "gend": "female",
  "name": "Lulu",
  "trial_type": "single-stim",
  "trial_index": 28,
  "time_elapsed": 215785,
  "internal_node_id": "0.0-1.0-27.0",
  "condition": 2
 },
 {
  "rt": 3777,
  "stimulus": "<p class='center-content'>Is this a smile?</p><p class='center-content'><img src='img/Dmonte_Affiliation.jpg' height='410' width='730'></img></p>",
  "key_press": 80,
  "expr": "affiliation",
  "gend": "male",
  "name": "Dmonte",
  "trial_type": "single-stim",
  "trial_index": 29,
  "time_elapsed": 220567,
  "internal_node_id": "0.0-1.0-28.0",
  "condition": 2
 },
 {
  "rt": 2300,
  "stimulus": "<p class='center-content'>Is this a smile?</p><p class='center-content'><img src='img/Jessica_Affiliation.jpg' height='410' width='730'></img></p>",
  "key_press": 80,
  "expr": "affiliation",
  "gend": "female",
  "name": "Jessica",
  "trial_type": "single-stim",
  "trial_index": 30,
  "time_elapsed": 223871,
  "internal_node_id": "0.0-1.0-29.0",
  "condition": 2
 },
 {
  "rt": 3196,
  "stimulus": "<p class='center-content'>Is this a smile?</p><p class='center-content'><img src='img/Zach.jpg' height='410' width='730'></img></p>",
  "key_press": 81,
  "expr": "neutral",
  "gend": "male",
  "name": "Zach",
  "trial_type": "single-stim",
  "trial_index": 31,
  "time_elapsed": 228073,
  "internal_node_id": "0.0-1.0-30.0",
  "condition": 2
 },
 {
  "rt": 5273,
  "stimulus": "<p class='center-content'>Is this a smile?</p><p class='center-content'><img src='img/Jourdan.jpg' height='410' width='730'></img></p>",
  "key_press": 81,
  "expr": "neutral",
  "gend": "male",
  "name": "Jourdan",
  "trial_type": "single-stim",
  "trial_index": 32,
  "time_elapsed": 234350,
  "internal_node_id": "0.0-1.0-31.0",
  "condition": 2
 },
 {
  "rt": 2570,
  "stimulus": "<p class='center-content'>Is this a smile?</p><p class='center-content'><img src='img/Ashley_Affiliation.jpg' height='410' width='730'></img></p>",
  "key_press": 80,
  "expr": "affiliation",
  "gend": "female",
  "name": "Ashley",
  "trial_type": "single-stim",
  "trial_index": 33,
  "time_elapsed": 237926,
  "internal_node_id": "0.0-1.0-32.0",
  "condition": 2
 },
 {
  "rt": 1907,
  "stimulus": "<p class='center-content'>Is this a smile?</p><p class='center-content'><img src='img/Ashley_Dominance.jpg' height='410' width='730'></img></p>",
  "key_press": 81,
  "expr": "dominance",
  "gend": "female",
  "name": "Ashley",
  "trial_type": "single-stim",
  "trial_index": 34,
  "time_elapsed": 240837,
  "internal_node_id": "0.0-1.0-33.0",
  "condition": 2
 },
 {
  "rt": 1636,
  "stimulus": "<p class='center-content'>Is this a smile?</p><p class='center-content'><img src='img/Joeseph_Disgust.jpg' height='410' width='730'></img></p>",
  "key_press": 81,
  "expr": "disgust",
  "gend": "male",
  "name": "Joeseph",
  "trial_type": "single-stim",
  "trial_index": 35,
  "time_elapsed": 243477,
  "internal_node_id": "0.0-1.0-34.0",
  "condition": 2
 },
 {
  "rt": 5418,
  "stimulus": "<p class='center-content'>Is this a smile?</p><p class='center-content'><img src='img/Andrew_Affiliation.jpg' height='410' width='730'></img></p>",
  "key_press": 80,
  "expr": "affiliation",
  "gend": "male",
  "name": "Andrew",
  "trial_type": "single-stim",
  "trial_index": 36,
  "time_elapsed": 249901,
  "internal_node_id": "0.0-1.0-35.0",
  "condition": 2
 },
 {
  "rt": 1464,
  "stimulus": "<p class='center-content'>Is this a smile?</p><p class='center-content'><img src='img/Naomi_Reward.jpg' height='410' width='730'></img></p>",
  "key_press": 80,
  "expr": "reward",
  "gend": "female",
  "name": "Naomi",
  "trial_type": "single-stim",
  "trial_index": 37,
  "time_elapsed": 252371,
  "internal_node_id": "0.0-1.0-36.0",
  "condition": 2
 },
 {
  "rt": 1930,
  "stimulus": "<p class='center-content'>Is this a smile?</p><p class='center-content'><img src='img/Anna_Affiliation.jpg' height='410' width='730'></img></p>",
  "key_press": 80,
  "expr": "affiliation",
  "gend": "female",
  "name": "Anna",
  "trial_type": "single-stim",
  "trial_index": 38,
  "time_elapsed": 255307,
  "internal_node_id": "0.0-1.0-37.0",
  "condition": 2
 },
 {
  "rt": 3439,
  "stimulus": "<p class='center-content'>Is this a smile?</p><p class='center-content'><img src='img/Mary.jpg' height='410' width='730'></img></p>",
  "key_press": 81,
  "expr": "neutral",
  "gend": "female",
  "name": "Mary",
  "trial_type": "single-stim",
  "trial_index": 39,
  "time_elapsed": 259753,
  "internal_node_id": "0.0-1.0-38.0",
  "condition": 2
 },
 {
  "rt": 1716,
  "stimulus": "<p class='center-content'>Is this a smile?</p><p class='center-content'><img src='img/Jourdan_Disgust.jpg' height='410' width='730'></img></p>",
  "key_press": 81,
  "expr": "disgust",
  "gend": "male",
  "name": "Jourdan",
  "trial_type": "single-stim",
  "trial_index": 40,
  "time_elapsed": 262474,
  "internal_node_id": "0.0-1.0-39.0",
  "condition": 2
 },
 {
  "rt": 2035,
  "stimulus": "<p class='center-content'>Is this a smile?</p><p class='center-content'><img src='img/Dmonte_Disgust.jpg' height='410' width='730'></img></p>",
  "key_press": 81,
  "expr": "disgust",
  "gend": "male",
  "name": "Dmonte",
  "trial_type": "single-stim",
  "trial_index": 41,
  "time_elapsed": 265513,
  "internal_node_id": "0.0-1.0-40.0",
  "condition": 2
 },
 {
  "rt": 3554,
  "stimulus": "<p class='center-content'>Is this a smile?</p><p class='center-content'><img src='img/Maurice_Dominance.jpg' height='410' width='730'></img></p>",
  "key_press": 81,
  "expr": "dominance",
  "gend": "male",
  "name": "Maurice",
  "trial_type": "single-stim",
  "trial_index": 42,
  "time_elapsed": 270070,
  "internal_node_id": "0.0-1.0-41.0",
  "condition": 2
 },
 {
  "rt": 4104,
  "stimulus": "<p class='center-content'>Is this a smile?</p><p class='center-content'><img src='img/Lulu_Dominance.jpg' height='410' width='730'></img></p>",
  "key_press": 81,
  "expr": "dominance",
  "gend": "female",
  "name": "Lulu",
  "trial_type": "single-stim",
  "trial_index": 43,
  "time_elapsed": 275179,
  "internal_node_id": "0.0-1.0-42.0",
  "condition": 2
 },
 {
  "rt": 18029,
  "stimulus": "<p class='center-content'>Is this a smile?</p><p class='center-content'><img src='img/Naomi_Disgust.jpg' height='410' width='730'></img></p>",
  "key_press": 81,
  "expr": "disgust",
  "gend": "female",
  "name": "Naomi",
  "trial_type": "single-stim",
  "trial_index": 44,
  "time_elapsed": 294211,
  "internal_node_id": "0.0-1.0-43.0",
  "condition": 2
 },
 {
  "rt": 13717,
  "stimulus": "<p class='center-content'>Is this a smile?</p><p class='center-content'><img src='img/KJ_Dominance.jpg' height='410' width='730'></img></p>",
  "key_press": 81,
  "expr": "dominance",
  "gend": "female",
  "name": "KJ",
  "trial_type": "single-stim",
  "trial_index": 45,
  "time_elapsed": 308933,
  "internal_node_id": "0.0-1.0-44.0",
  "condition": 2
 },
 {
  "rt": 1667,
  "stimulus": "<p class='center-content'>Is this a smile?</p><p class='center-content'><img src='img/Naomi.jpg' height='410' width='730'></img></p>",
  "key_press": 81,
  "expr": "neutral",
  "gend": "female",
  "name": "Naomi",
  "trial_type": "single-stim",
  "trial_index": 46,
  "time_elapsed": 311604,
  "internal_node_id": "0.0-1.0-45.0",
  "condition": 2
 },
 {
  "rt": 1682,
  "stimulus": "<p class='center-content'>Is this a smile?</p><p class='center-content'><img src='img/Jourdan_Reward.jpg' height='410' width='730'></img></p>",
  "key_press": 80,
  "expr": "reward",
  "gend": "male",
  "name": "Jourdan",
  "trial_type": "single-stim",
  "trial_index": 47,
  "time_elapsed": 314292,
  "internal_node_id": "0.0-1.0-46.0",
  "condition": 2
 },
 {
  "rt": 3431,
  "stimulus": "<p class='center-content'>Is this a smile?</p><p class='center-content'><img src='img/Mary_Dominance.jpg' height='410' width='730'></img></p>",
  "key_press": 81,
  "expr": "dominance",
  "gend": "female",
  "name": "Mary",
  "trial_type": "single-stim",
  "trial_index": 48,
  "time_elapsed": 318728,
  "internal_node_id": "0.0-1.0-47.0",
  "condition": 2
 },
 {
  "rt": 1406,
  "stimulus": "<p class='center-content'>Is this a smile?</p><p class='center-content'><img src='img/Anthony_Disgust.jpg' height='410' width='730'></img></p>",
  "key_press": 81,
  "expr": "disgust",
  "gend": "male",
  "name": "Anthony",
  "trial_type": "single-stim",
  "trial_index": 49,
  "time_elapsed": 321137,
  "internal_node_id": "0.0-1.0-48.0",
  "condition": 2
 },
 {
  "rt": 3925,
  "stimulus": "<p class='center-content'>Is this a smile?</p><p class='center-content'><img src='img/Lulu_Affiliation.jpg' height='410' width='730'></img></p>",
  "key_press": 81,
  "expr": "affiliation",
  "gend": "female",
  "name": "Lulu",
  "trial_type": "single-stim",
  "trial_index": 50,
  "time_elapsed": 326066,
  "internal_node_id": "0.0-1.0-49.0",
  "condition": 2
 },
 {
  "rt": 8659,
  "stimulus": "<p class='center-content'>Is this a smile?</p><p class='center-content'><img src='img/Jourdan_Dominance.jpg' height='410' width='730'></img></p>",
  "key_press": 81,
  "expr": "dominance",
  "gend": "male",
  "name": "Jourdan",
  "trial_type": "single-stim",
  "trial_index": 51,
  "time_elapsed": 335728,
  "internal_node_id": "0.0-1.0-50.0",
  "condition": 2
 },
 {
  "rt": 1717,
  "stimulus": "<p class='center-content'>Is this a smile?</p><p class='center-content'><img src='img/Anna_Reward.jpg' height='410' width='730'></img></p>",
  "key_press": 80,
  "expr": "reward",
  "gend": "female",
  "name": "Anna",
  "trial_type": "single-stim",
  "trial_index": 52,
  "time_elapsed": 338447,
  "internal_node_id": "0.0-1.0-51.0",
  "condition": 2
 },
 {
  "rt": 2964,
  "stimulus": "<p class='center-content'>Is this a smile?</p><p class='center-content'><img src='img/Joeseph_Affiliation.jpg' height='410' width='730'></img></p>",
  "key_press": 80,
  "expr": "affiliation",
  "gend": "male",
  "name": "Joeseph",
  "trial_type": "single-stim",
  "trial_index": 53,
  "time_elapsed": 342417,
  "internal_node_id": "0.0-1.0-52.0",
  "condition": 2
 },
 {
  "rt": 14976,
  "stimulus": "<p class='center-content'>Is this a smile?</p><p class='center-content'><img src='img/Andrew_Dominance.jpg' height='410' width='730'></img></p>",
  "key_press": 80,
  "expr": "dominance",
  "gend": "male",
  "name": "Andrew",
  "trial_type": "single-stim",
  "trial_index": 54,
  "time_elapsed": 358399,
  "internal_node_id": "0.0-1.0-53.0",
  "condition": 2
 },
 {
  "rt": 1611,
  "stimulus": "<p class='center-content'>Is this a smile?</p><p class='center-content'><img src='img/Andrew_Reward.jpg' height='410' width='730'></img></p>",
  "key_press": 80,
  "expr": "reward",
  "gend": "male",
  "name": "Andrew",
  "trial_type": "single-stim",
  "trial_index": 55,
  "time_elapsed": 361015,
  "internal_node_id": "0.0-1.0-54.0",
  "condition": 2
 },
 {
  "rt": 2124,
  "stimulus": "<p class='center-content'>Is this a smile?</p><p class='center-content'><img src='img/Marcus_Affiliation.jpg' height='410' width='730'></img></p>",
  "key_press": 81,
  "expr": "affiliation",
  "gend": "male",
  "name": "Marcus",
  "trial_type": "single-stim",
  "trial_index": 56,
  "time_elapsed": 364143,
  "internal_node_id": "0.0-1.0-55.0",
  "condition": 2
 },
 {
  "rt": 2589,
  "stimulus": "<p class='center-content'>Is this a smile?</p><p class='center-content'><img src='img/Zach_Affiliation.jpg' height='410' width='730'></img></p>",
  "key_press": 80,
  "expr": "affiliation",
  "gend": "male",
  "name": "Zach",
  "trial_type": "single-stim",
  "trial_index": 57,
  "time_elapsed": 367735,
  "internal_node_id": "0.0-1.0-56.0",
  "condition": 2
 },
 {
  "rt": 1141,
  "stimulus": "<p class='center-content'>Is this a smile?</p><p class='center-content'><img src='img/Mary_Disgust.jpg' height='410' width='730'></img></p>",
  "key_press": 81,
  "expr": "disgust",
  "gend": "female",
  "name": "Mary",
  "trial_type": "single-stim",
  "trial_index": 58,
  "time_elapsed": 369880,
  "internal_node_id": "0.0-1.0-57.0",
  "condition": 2
 },
 {
  "rt": 1208,
  "stimulus": "<p class='center-content'>Is this a smile?</p><p class='center-content'><img src='img/Jessica_Reward.jpg' height='410' width='730'></img></p>",
  "key_press": 80,
  "expr": "reward",
  "gend": "female",
  "name": "Jessica",
  "trial_type": "single-stim",
  "trial_index": 59,
  "time_elapsed": 372095,
  "internal_node_id": "0.0-1.0-58.0",
  "condition": 2
 },
 {
  "rt": 1404,
  "stimulus": "<p class='center-content'>Is this a smile?</p><p class='center-content'><img src='img/Maurice_Disgust.jpg' height='410' width='730'></img></p>",
  "key_press": 81,
  "expr": "disgust",
  "gend": "male",
  "name": "Maurice",
  "trial_type": "single-stim",
  "trial_index": 60,
  "time_elapsed": 374503,
  "internal_node_id": "0.0-1.0-59.0",
  "condition": 2
 },
 {
  "rt": 2012,
  "stimulus": "<p class='center-content'>Is this a smile?</p><p class='center-content'><img src='img/Dmonte_Dominance.jpg' height='410' width='730'></img></p>",
  "key_press": 81,
  "expr": "dominance",
  "gend": "male",
  "name": "Dmonte",
  "trial_type": "single-stim",
  "trial_index": 61,
  "time_elapsed": 377519,
  "internal_node_id": "0.0-1.0-60.0",
  "condition": 2
 },
 {
  "rt": 4425,
  "stimulus": "<p class='center-content'>Is this a smile?</p><p class='center-content'><img src='img/Anthony_Reward.jpg' height='410' width='730'></img></p>",
  "key_press": 80,
  "expr": "reward",
  "gend": "male",
  "name": "Anthony",
  "trial_type": "single-stim",
  "trial_index": 62,
  "time_elapsed": 382950,
  "internal_node_id": "0.0-1.0-61.0",
  "condition": 2
 },
 {
  "rt": 3019,
  "stimulus": "<p class='center-content'>Is this a smile?</p><p class='center-content'><img src='img/Ashley_Disgust.jpg' height='410' width='730'></img></p>",
  "key_press": 81,
  "expr": "disgust",
  "gend": "female",
  "name": "Ashley",
  "trial_type": "single-stim",
  "trial_index": 63,
  "time_elapsed": 386973,
  "internal_node_id": "0.0-1.0-62.0",
  "condition": 2
 },
 {
  "rt": 1794,
  "stimulus": "<p class='center-content'>Is this a smile?</p><p class='center-content'><img src='img/Andrew.jpg' height='410' width='730'></img></p>",
  "key_press": 81,
  "expr": "neutral",
  "gend": "male",
  "name": "Andrew",
  "trial_type": "single-stim",
  "trial_index": 64,
  "time_elapsed": 389773,
  "internal_node_id": "0.0-1.0-63.0",
  "condition": 2
 },
 {
  "rt": 1396,
  "stimulus": "<p class='center-content'>Is this a smile?</p><p class='center-content'><img src='img/Maurice_Reward.jpg' height='410' width='730'></img></p>",
  "key_press": 80,
  "expr": "reward",
  "gend": "male",
  "name": "Maurice",
  "trial_type": "single-stim",
  "trial_index": 65,
  "time_elapsed": 392172,
  "internal_node_id": "0.0-1.0-64.0",
  "condition": 2
 },
 {
  "rt": 2035,
  "stimulus": "<p class='center-content'>Is this a smile?</p><p class='center-content'><img src='img/Ashley_Reward.jpg' height='410' width='730'></img></p>",
  "key_press": 80,
  "expr": "reward",
  "gend": "female",
  "name": "Ashley",
  "trial_type": "single-stim",
  "trial_index": 66,
  "time_elapsed": 395213,
  "internal_node_id": "0.0-1.0-65.0",
  "condition": 2
 },
 {
  "rt": 3325,
  "stimulus": "<p class='center-content'>Is this a smile?</p><p class='center-content'><img src='img/Marcus_Disgust.jpg' height='410' width='730'></img></p>",
  "key_press": 81,
  "expr": "disgust",
  "gend": "male",
  "name": "Marcus",
  "trial_type": "single-stim",
  "trial_index": 67,
  "time_elapsed": 399542,
  "internal_node_id": "0.0-1.0-66.0",
  "condition": 2
 },
 {
  "rt": 7691,
  "stimulus": "<p class='center-content'>Is this a smile?</p><p class='center-content'><img src='img/Jessica.jpg' height='410' width='730'></img></p>",
  "key_press": 81,
  "expr": "neutral",
  "gend": "female",
  "name": "Jessica",
  "trial_type": "single-stim",
  "trial_index": 68,
  "time_elapsed": 408237,
  "internal_node_id": "0.0-1.0-67.0",
  "condition": 2
 },
 {
  "rt": 7257,
  "stimulus": "<p class='center-content'>Is this a smile?</p><p class='center-content'><img src='img/Jessica_Dominance.jpg' height='410' width='730'></img></p>",
  "key_press": 81,
  "expr": "dominance",
  "gend": "female",
  "name": "Jessica",
  "trial_type": "single-stim",
  "trial_index": 69,
  "time_elapsed": 416497,
  "internal_node_id": "0.0-1.0-68.0",
  "condition": 2
 },
 {
  "rt": 1308,
  "stimulus": "<p class='center-content'>Is this a smile?</p><p class='center-content'><img src='img/Dmonte_Reward.jpg' height='410' width='730'></img></p>",
  "key_press": 80,
  "expr": "reward",
  "gend": "male",
  "name": "Dmonte",
  "trial_type": "single-stim",
  "trial_index": 70,
  "time_elapsed": 418810,
  "internal_node_id": "0.0-1.0-69.0",
  "condition": 2
 },
 {
  "rt": 1235,
  "stimulus": "<p class='center-content'>Is this a smile?</p><p class='center-content'><img src='img/Zach_Reward.jpg' height='410' width='730'></img></p>",
  "key_press": 80,
  "expr": "reward",
  "gend": "male",
  "name": "Zach",
  "trial_type": "single-stim",
  "trial_index": 71,
  "time_elapsed": 421049,
  "internal_node_id": "0.0-1.0-70.0",
  "condition": 2
 },
 {
  "rt": 8866,
  "stimulus": "<p class='center-content'>Is this a smile?</p><p class='center-content'><img src='img/Naomi_Dominance.jpg' height='410' width='730'></img></p>",
  "key_press": 80,
  "expr": "dominance",
  "gend": "female",
  "name": "Naomi",
  "trial_type": "single-stim",
  "trial_index": 72,
  "time_elapsed": 430918,
  "internal_node_id": "0.0-1.0-71.0",
  "condition": 2
 },
 {
  "rt": 1716,
  "stimulus": "<p class='center-content'>Is this a smile?</p><p class='center-content'><img src='img/Zach_Dominance.jpg' height='410' width='730'></img></p>",
  "key_press": 81,
  "expr": "dominance",
  "gend": "male",
  "name": "Zach",
  "trial_type": "single-stim",
  "trial_index": 73,
  "time_elapsed": 433638,
  "internal_node_id": "0.0-1.0-72.0",
  "condition": 2
 },
 {
  "rt": 1452,
  "stimulus": "<p class='center-content'>Is this a smile?</p><p class='center-content'><img src='img/Ashley.jpg' height='410' width='730'></img></p>",
  "key_press": 81,
  "expr": "neutral",
  "gend": "female",
  "name": "Ashley",
  "trial_type": "single-stim",
  "trial_index": 74,
  "time_elapsed": 436094,
  "internal_node_id": "0.0-1.0-73.0",
  "condition": 2
 },
 {
  "rt": 1092,
  "stimulus": "<p class='center-content'>Is this a smile?</p><p class='center-content'><img src='img/Maurice.jpg' height='410' width='730'></img></p>",
  "key_press": 81,
  "expr": "neutral",
  "gend": "male",
  "name": "Maurice",
  "trial_type": "single-stim",
  "trial_index": 75,
  "time_elapsed": 438189,
  "internal_node_id": "0.0-1.0-74.0",
  "condition": 2
 },
 {
  "rt": 18532,
  "responses": "{\"Q0\":\"Male\",\"Q1\":\"White/Caucasian/European American\",\"Q2\":\"right\",\"Q3\":\"P\",\"Q4\":\"Q\"}",
  "trial_type": "survey-multi-choice",
  "trial_index": 76,
  "time_elapsed": 457739,
  "internal_node_id": "0.0-2.0"
 },
 {
  "rt": 28349,
  "key_press": 13,
  "trial_type": "text",
  "trial_index": 77,
  "time_elapsed": 487092,
  "internal_node_id": "0.0-3.0"
 }
]

    },
    "AcceptTime": "2017-11-18T01:20:43Z",
    "HITId": "32LAQ1JNT99U8CEAP978IEEKE9MTUG",
    "Assignment": "",
    "AssignmentStatus": "Submitted",
    "SubmitTime": "2017-11-18T01:21:18Z"
}