{
    "AutoApprovalTime": "2017-11-18T01:36:18Z",
    "AssignmentId": "3JPSL1DZ5TJFKATLCA97YYRFU1BNA5",
    "WorkerId": "subject1",
    "answers": {
        "data": 
[
 {
  "rt": 5532,
  "key_press": 13,
  "trial_type": "text",
  "trial_index": 0,
  "time_elapsed": 5534,
  "internal_node_id": "0.0-0.0"
 },
 {
  "rt": 1091,
  "stimulus": "<p class='center-content'>Is this a smile?</p><p class='center-content'><img src='img/Jourdan_Reward.jpg' height='410' width='730'></img></p>",
  "key_press": 80,
  "expr": "reward",
  "gend": "male",
  "name": "Jourdan",
  "trial_type": "single-stim",
  "trial_index": 1,
  "time_elapsed": 8629,
  "internal_node_id": "0.0-1.0-0.0",
  "condition": 2
 },
 {
  "rt": 866,
  "stimulus": "<p class='center-content'>Is this a smile?</p><p class='center-content'><img src='img/Lulu.jpg' height='410' width='730'></img></p>",
  "key_press": 81,
  "expr": "neutral",
  "gend": "female",
  "name": "Lulu",
  "trial_type": "single-stim",
  "trial_index": 2,
  "time_elapsed": 10499,
  "internal_node_id": "0.0-1.0-1.0",
  "condition": 2
 },
 {
  "rt": 962,
  "stimulus": "<p class='center-content'>Is this a smile?</p><p class='center-content'><img src='img/Marcus_Reward.jpg' height='410' width='730'></img></p>",
  "key_press": 80,
  "expr": "reward",
  "gend": "male",
  "name": "Marcus",
  "trial_type": "single-stim",
  "trial_index": 3,
  "time_elapsed": 12468,
  "internal_node_id": "0.0-1.0-2.0",
  "condition": 2
 },
 {
  "rt": 977,
  "stimulus": "<p class='center-content'>Is this a smile?</p><p class='center-content'><img src='img/Mary_Reward.jpg' height='410' width='730'></img></p>",
  "key_press": 80,
  "expr": "reward",
  "gend": "female",
  "name": "Mary",
  "trial_type": "single-stim",
  "trial_index": 4,
  "time_elapsed": 14451,
  "internal_node_id": "0.0-1.0-3.0",
  "condition": 2
 },
 {
  "rt": 1311,
  "stimulus": "<p class='center-content'>Is this a smile?</p><p class='center-content'><img src='img/Naomi_Disgust.jpg' height='410' width='730'></img></p>",
  "key_press": 80,
  "expr": "disgust",
  "gend": "female",
  "name": "Naomi",
  "trial_type": "single-stim",
  "trial_index": 5,
  "time_elapsed": 16764,
  "internal_node_id": "0.0-1.0-4.0",
  "condition": 2
 },
 {
  "rt": 1131,
  "stimulus": "<p class='center-content'>Is this a smile?</p><p class='center-content'><img src='img/Zach.jpg' height='410' width='730'></img></p>",
  "key_press": 81,
  "expr": "neutral",
  "gend": "male",
  "name": "Zach",
  "trial_type": "single-stim",
  "trial_index": 6,
  "time_elapsed": 18900,
  "internal_node_id": "0.0-1.0-5.0",
  "condition": 2
 },
 {
  "rt": 1315,
  "stimulus": "<p class='center-content'>Is this a smile?</p><p class='center-content'><img src='img/Ashley_Reward.jpg' height='410' width='730'></img></p>",
  "key_press": 80,
  "expr": "reward",
  "gend": "female",
  "name": "Ashley",
  "trial_type": "single-stim",
  "trial_index": 7,
  "time_elapsed": 21220,
  "internal_node_id": "0.0-1.0-6.0",
  "condition": 2
 },
 {
  "rt": 1038,
  "stimulus": "<p class='center-content'>Is this a smile?</p><p class='center-content'><img src='img/Jessica_Reward.jpg' height='410' width='730'></img></p>",
  "key_press": 80,
  "expr": "reward",
  "gend": "female",
  "name": "Jessica",
  "trial_type": "single-stim",
  "trial_index": 8,
  "time_elapsed": 23260,
  "internal_node_id": "0.0-1.0-7.0",
  "condition": 2
 },
 {
  "rt": 2402,
  "stimulus": "<p class='center-content'>Is this a smile?</p><p class='center-content'><img src='img/Maurice_Dominance.jpg' height='410' width='730'></img></p>",
  "key_press": 80,
  "expr": "dominance",
  "gend": "male",
  "name": "Maurice",
  "trial_type": "single-stim",
  "trial_index": 9,
  "time_elapsed": 26665,
  "internal_node_id": "0.0-1.0-8.0",
  "condition": 2
 },
 {
  "rt": 908,
  "stimulus": "<p class='center-content'>Is this a smile?</p><p class='center-content'><img src='img/Dmonte_Disgust.jpg' height='410' width='730'></img></p>",
  "key_press": 81,
  "expr": "disgust",
  "gend": "male",
  "name": "Dmonte",
  "trial_type": "single-stim",
  "trial_index": 10,
  "time_elapsed": 28576,
  "internal_node_id": "0.0-1.0-9.0",
  "condition": 2
 },
 {
  "rt": 753,
  "stimulus": "<p class='center-content'>Is this a smile?</p><p class='center-content'><img src='img/Anthony_Reward.jpg' height='410' width='730'></img></p>",
  "key_press": 80,
  "expr": "reward",
  "gend": "male",
  "name": "Anthony",
  "trial_type": "single-stim",
  "trial_index": 11,
  "time_elapsed": 30330,
  "internal_node_id": "0.0-1.0-10.0",
  "condition": 2
 },
 {
  "rt": 1171,
  "stimulus": "<p class='center-content'>Is this a smile?</p><p class='center-content'><img src='img/Jourdan_Affiliation.jpg' height='410' width='730'></img></p>",
  "key_press": 80,
  "expr": "affiliation",
  "gend": "male",
  "name": "Jourdan",
  "trial_type": "single-stim",
  "trial_index": 12,
  "time_elapsed": 32505,
  "internal_node_id": "0.0-1.0-11.0",
  "condition": 2
 },
 {
  "rt": 1477,
  "stimulus": "<p class='center-content'>Is this a smile?</p><p class='center-content'><img src='img/Ashley_Dominance.jpg' height='410' width='730'></img></p>",
  "key_press": 80,
  "expr": "dominance",
  "gend": "female",
  "name": "Ashley",
  "trial_type": "single-stim",
  "trial_index": 13,
  "time_elapsed": 34985,
  "internal_node_id": "0.0-1.0-12.0",
  "condition": 2
 },
 {
  "rt": 1091,
  "stimulus": "<p class='center-content'>Is this a smile?</p><p class='center-content'><img src='img/Jourdan_Disgust.jpg' height='410' width='730'></img></p>",
  "key_press": 81,
  "expr": "disgust",
  "gend": "male",
  "name": "Jourdan",
  "trial_type": "single-stim",
  "trial_index": 14,
  "time_elapsed": 37082,
  "internal_node_id": "0.0-1.0-13.0",
  "condition": 2
 },
 {
  "rt": 1857,
  "stimulus": "<p class='center-content'>Is this a smile?</p><p class='center-content'><img src='img/Anna_Disgust.jpg' height='410' width='730'></img></p>",
  "key_press": 81,
  "expr": "disgust",
  "gend": "female",
  "name": "Anna",
  "trial_type": "single-stim",
  "trial_index": 15,
  "time_elapsed": 39946,
  "internal_node_id": "0.0-1.0-14.0",
  "condition": 2
 },
 {
  "rt": 685,
  "stimulus": "<p class='center-content'>Is this a smile?</p><p class='center-content'><img src='img/Naomi_Reward.jpg' height='410' width='730'></img></p>",
  "key_press": 80,
  "expr": "reward",
  "gend": "female",
  "name": "Naomi",
  "trial_type": "single-stim",
  "trial_index": 16,
  "time_elapsed": 41634,
  "internal_node_id": "0.0-1.0-15.0",
  "condition": 2
 },
 {
  "rt": 1268,
  "stimulus": "<p class='center-content'>Is this a smile?</p><p class='center-content'><img src='img/Naomi_Dominance.jpg' height='410' width='730'></img></p>",
  "key_press": 80,
  "expr": "dominance",
  "gend": "female",
  "name": "Naomi",
  "trial_type": "single-stim",
  "trial_index": 17,
  "time_elapsed": 43906,
  "internal_node_id": "0.0-1.0-16.0",
  "condition": 2
 },
 {
  "rt": 1180,
  "stimulus": "<p class='center-content'>Is this a smile?</p><p class='center-content'><img src='img/Maurice_Disgust.jpg' height='410' width='730'></img></p>",
  "key_press": 81,
  "expr": "disgust",
  "gend": "male",
  "name": "Maurice",
  "trial_type": "single-stim",
  "trial_index": 18,
  "time_elapsed": 46090,
  "internal_node_id": "0.0-1.0-17.0",
  "condition": 2
 },
 {
  "rt": 1113,
  "stimulus": "<p class='center-content'>Is this a smile?</p><p class='center-content'><img src='img/Anthony_Disgust.jpg' height='410' width='730'></img></p>",
  "key_press": 81,
  "expr": "disgust",
  "gend": "male",
  "name": "Anthony",
  "trial_type": "single-stim",
  "trial_index": 19,
  "time_elapsed": 48210,
  "internal_node_id": "0.0-1.0-18.0",
  "condition": 2
 },
 {
  "rt": 634,
  "stimulus": "<p class='center-content'>Is this a smile?</p><p class='center-content'><img src='img/Anna_Reward.jpg' height='410' width='730'></img></p>",
  "key_press": 80,
  "expr": "reward",
  "gend": "female",
  "name": "Anna",
  "trial_type": "single-stim",
  "trial_index": 20,
  "time_elapsed": 49851,
  "internal_node_id": "0.0-1.0-19.0",
  "condition": 2
 },
 {
  "rt": 2705,
  "stimulus": "<p class='center-content'>Is this a smile?</p><p class='center-content'><img src='img/Joeseph_Disgust.jpg' height='410' width='730'></img></p>",
  "key_press": 80,
  "expr": "disgust",
  "gend": "male",
  "name": "Joeseph",
  "trial_type": "single-stim",
  "trial_index": 21,
  "time_elapsed": 53562,
  "internal_node_id": "0.0-1.0-20.0",
  "condition": 2
 },
 {
  "rt": 1507,
  "stimulus": "<p class='center-content'>Is this a smile?</p><p class='center-content'><img src='img/Ashley_Disgust.jpg' height='410' width='730'></img></p>",
  "key_press": 81,
  "expr": "disgust",
  "gend": "female",
  "name": "Ashley",
  "trial_type": "single-stim",
  "trial_index": 22,
  "time_elapsed": 56073,
  "internal_node_id": "0.0-1.0-21.0",
  "condition": 2
 },
 {
  "rt": 650,
  "stimulus": "<p class='center-content'>Is this a smile?</p><p class='center-content'><img src='img/Andrew_Reward.jpg' height='410' width='730'></img></p>",
  "key_press": 80,
  "expr": "reward",
  "gend": "male",
  "name": "Andrew",
  "trial_type": "single-stim",
  "trial_index": 23,
  "time_elapsed": 57729,
  "internal_node_id": "0.0-1.0-22.0",
  "condition": 2
 },
 {
  "rt": 981,
  "stimulus": "<p class='center-content'>Is this a smile?</p><p class='center-content'><img src='img/KJ_Dominance.jpg' height='410' width='730'></img></p>",
  "key_press": 80,
  "expr": "dominance",
  "gend": "female",
  "name": "KJ",
  "trial_type": "single-stim",
  "trial_index": 24,
  "time_elapsed": 59714,
  "internal_node_id": "0.0-1.0-23.0",
  "condition": 2
 },
 {
  "rt": 1300,
  "stimulus": "<p class='center-content'>Is this a smile?</p><p class='center-content'><img src='img/Joeseph_Affiliation.jpg' height='410' width='730'></img></p>",
  "key_press": 80,
  "expr": "affiliation",
  "gend": "male",
  "name": "Joeseph",
  "trial_type": "single-stim",
  "trial_index": 25,
  "time_elapsed": 62018,
  "internal_node_id": "0.0-1.0-24.0",
  "condition": 2
 },
 {
  "rt": 890,
  "stimulus": "<p class='center-content'>Is this a smile?</p><p class='center-content'><img src='img/Andrew_Disgust.jpg' height='410' width='730'></img></p>",
  "key_press": 81,
  "expr": "disgust",
  "gend": "male",
  "name": "Andrew",
  "trial_type": "single-stim",
  "trial_index": 26,
  "time_elapsed": 63914,
  "internal_node_id": "0.0-1.0-25.0",
  "condition": 2
 },
 {
  "rt": 742,
  "stimulus": "<p class='center-content'>Is this a smile?</p><p class='center-content'><img src='img/Joeseph_Reward.jpg' height='410' width='730'></img></p>",
  "key_press": 80,
  "expr": "reward",
  "gend": "male",
  "name": "Joeseph",
  "trial_type": "single-stim",
  "trial_index": 27,
  "time_elapsed": 65657,
  "internal_node_id": "0.0-1.0-26.0",
  "condition": 2
 },
 {
  "rt": 2068,
  "stimulus": "<p class='center-content'>Is this a smile?</p><p class='center-content'><img src='img/Naomi.jpg' height='410' width='730'></img></p>",
  "key_press": 81,
  "expr": "neutral",
  "gend": "female",
  "name": "Naomi",
  "trial_type": "single-stim",
  "trial_index": 28,
  "time_elapsed": 68730,
  "internal_node_id": "0.0-1.0-27.0",
  "condition": 2
 },
 {
  "rt": 1237,
  "stimulus": "<p class='center-content'>Is this a smile?</p><p class='center-content'><img src='img/Mary_Disgust.jpg' height='410' width='730'></img></p>",
  "key_press": 81,
  "expr": "disgust",
  "gend": "female",
  "name": "Mary",
  "trial_type": "single-stim",
  "trial_index": 29,
  "time_elapsed": 70969,
  "internal_node_id": "0.0-1.0-28.0",
  "condition": 2
 },
 {
  "rt": 1134,
  "stimulus": "<p class='center-content'>Is this a smile?</p><p class='center-content'><img src='img/Jourdan.jpg' height='410' width='730'></img></p>",
  "key_press": 81,
  "expr": "neutral",
  "gend": "male",
  "name": "Jourdan",
  "trial_type": "single-stim",
  "trial_index": 30,
  "time_elapsed": 73107,
  "internal_node_id": "0.0-1.0-29.0",
  "condition": 2
 },
 {
  "rt": 1468,
  "stimulus": "<p class='center-content'>Is this a smile?</p><p class='center-content'><img src='img/Marcus.jpg' height='410' width='730'></img></p>",
  "key_press": 81,
  "expr": "neutral",
  "gend": "male",
  "name": "Marcus",
  "trial_type": "single-stim",
  "trial_index": 31,
  "time_elapsed": 75579,
  "internal_node_id": "0.0-1.0-30.0",
  "condition": 2
 },
 {
  "rt": 627,
  "stimulus": "<p class='center-content'>Is this a smile?</p><p class='center-content'><img src='img/KJ_Affiliation.jpg' height='410' width='730'></img></p>",
  "key_press": 80,
  "expr": "affiliation",
  "gend": "female",
  "name": "KJ",
  "trial_type": "single-stim",
  "trial_index": 32,
  "time_elapsed": 77210,
  "internal_node_id": "0.0-1.0-31.0",
  "condition": 2
 },
 {
  "rt": 1167,
  "stimulus": "<p class='center-content'>Is this a smile?</p><p class='center-content'><img src='img/Andrew.jpg' height='410' width='730'></img></p>",
  "key_press": 81,
  "expr": "neutral",
  "gend": "male",
  "name": "Andrew",
  "trial_type": "single-stim",
  "trial_index": 33,
  "time_elapsed": 79380,
  "internal_node_id": "0.0-1.0-32.0",
  "condition": 2
 },
 {
  "rt": 2057,
  "stimulus": "<p class='center-content'>Is this a smile?</p><p class='center-content'><img src='img/Zach_Disgust.jpg' height='410' width='730'></img></p>",
  "key_press": 81,
  "expr": "disgust",
  "gend": "male",
  "name": "Zach",
  "trial_type": "single-stim",
  "trial_index": 34,
  "time_elapsed": 82442,
  "internal_node_id": "0.0-1.0-33.0",
  "condition": 2
 },
 {
  "rt": 707,
  "stimulus": "<p class='center-content'>Is this a smile?</p><p class='center-content'><img src='img/Zach_Affiliation.jpg' height='410' width='730'></img></p>",
  "key_press": 80,
  "expr": "affiliation",
  "gend": "male",
  "name": "Zach",
  "trial_type": "single-stim",
  "trial_index": 35,
  "time_elapsed": 84155,
  "internal_node_id": "0.0-1.0-34.0",
  "condition": 2
 },
 {
  "rt": 1386,
  "stimulus": "<p class='center-content'>Is this a smile?</p><p class='center-content'><img src='img/Marcus_Affiliation.jpg' height='410' width='730'></img></p>",
  "key_press": 80,
  "expr": "affiliation",
  "gend": "male",
  "name": "Marcus",
  "trial_type": "single-stim",
  "trial_index": 36,
  "time_elapsed": 86547,
  "internal_node_id": "0.0-1.0-35.0",
  "condition": 2
 },
 {
  "rt": 1362,
  "stimulus": "<p class='center-content'>Is this a smile?</p><p class='center-content'><img src='img/Dmonte_Affiliation.jpg' height='410' width='730'></img></p>",
  "key_press": 80,
  "expr": "affiliation",
  "gend": "male",
  "name": "Dmonte",
  "trial_type": "single-stim",
  "trial_index": 37,
  "time_elapsed": 88913,
  "internal_node_id": "0.0-1.0-36.0",
  "condition": 2
 },
 {
  "rt": 4371,
  "stimulus": "<p class='center-content'>Is this a smile?</p><p class='center-content'><img src='img/Mary_Dominance.jpg' height='410' width='730'></img></p>",
  "key_press": 80,
  "expr": "dominance",
  "gend": "female",
  "name": "Mary",
  "trial_type": "single-stim",
  "trial_index": 38,
  "time_elapsed": 94290,
  "internal_node_id": "0.0-1.0-37.0",
  "condition": 2
 },
 {
  "rt": 1701,
  "stimulus": "<p class='center-content'>Is this a smile?</p><p class='center-content'><img src='img/Maurice_Affiliation.jpg' height='410' width='730'></img></p>",
  "key_press": 80,
  "expr": "affiliation",
  "gend": "male",
  "name": "Maurice",
  "trial_type": "single-stim",
  "trial_index": 39,
  "time_elapsed": 96996,
  "internal_node_id": "0.0-1.0-38.0",
  "condition": 2
 },
 {
  "rt": 1005,
  "stimulus": "<p class='center-content'>Is this a smile?</p><p class='center-content'><img src='img/Maurice.jpg' height='410' width='730'></img></p>",
  "key_press": 81,
  "expr": "neutral",
  "gend": "male",
  "name": "Maurice",
  "trial_type": "single-stim",
  "trial_index": 40,
  "time_elapsed": 99004,
  "internal_node_id": "0.0-1.0-39.0",
  "condition": 2
 },
 {
  "rt": 1003,
  "stimulus": "<p class='center-content'>Is this a smile?</p><p class='center-content'><img src='img/Joeseph.jpg' height='410' width='730'></img></p>",
  "key_press": 81,
  "expr": "neutral",
  "gend": "male",
  "name": "Joeseph",
  "trial_type": "single-stim",
  "trial_index": 41,
  "time_elapsed": 101011,
  "internal_node_id": "0.0-1.0-40.0",
  "condition": 2
 },
 {
  "rt": 914,
  "stimulus": "<p class='center-content'>Is this a smile?</p><p class='center-content'><img src='img/Marcus_Dominance.jpg' height='410' width='730'></img></p>",
  "key_press": 80,
  "expr": "dominance",
  "gend": "male",
  "name": "Marcus",
  "trial_type": "single-stim",
  "trial_index": 42,
  "time_elapsed": 102931,
  "internal_node_id": "0.0-1.0-41.0",
  "condition": 2
 },
 {
  "rt": 889,
  "stimulus": "<p class='center-content'>Is this a smile?</p><p class='center-content'><img src='img/Maurice_Reward.jpg' height='410' width='730'></img></p>",
  "key_press": 80,
  "expr": "reward",
  "gend": "male",
  "name": "Maurice",
  "trial_type": "single-stim",
  "trial_index": 43,
  "time_elapsed": 104827,
  "internal_node_id": "0.0-1.0-42.0",
  "condition": 2
 },
 {
  "rt": 1102,
  "stimulus": "<p class='center-content'>Is this a smile?</p><p class='center-content'><img src='img/Dmonte.jpg' height='410' width='730'></img></p>",
  "key_press": 81,
  "expr": "neutral",
  "gend": "male",
  "name": "Dmonte",
  "trial_type": "single-stim",
  "trial_index": 44,
  "time_elapsed": 106931,
  "internal_node_id": "0.0-1.0-43.0",
  "condition": 2
 },
 {
  "rt": 844,
  "stimulus": "<p class='center-content'>Is this a smile?</p><p class='center-content'><img src='img/Zach_Reward.jpg' height='410' width='730'></img></p>",
  "key_press": 80,
  "expr": "reward",
  "gend": "male",
  "name": "Zach",
  "trial_type": "single-stim",
  "trial_index": 45,
  "time_elapsed": 108780,
  "internal_node_id": "0.0-1.0-44.0",
  "condition": 2
 },
 {
  "rt": 854,
  "stimulus": "<p class='center-content'>Is this a smile?</p><p class='center-content'><img src='img/Lulu_Affiliation.jpg' height='410' width='730'></img></p>",
  "key_press": 81,
  "expr": "affiliation",
  "gend": "female",
  "name": "Lulu",
  "trial_type": "single-stim",
  "trial_index": 46,
  "time_elapsed": 110636,
  "internal_node_id": "0.0-1.0-45.0",
  "condition": 2
 },
 {
  "rt": 1068,
  "stimulus": "<p class='center-content'>Is this a smile?</p><p class='center-content'><img src='img/Lulu_Disgust.jpg' height='410' width='730'></img></p>",
  "key_press": 81,
  "expr": "disgust",
  "gend": "female",
  "name": "Lulu",
  "trial_type": "single-stim",
  "trial_index": 47,
  "time_elapsed": 112707,
  "internal_node_id": "0.0-1.0-46.0",
  "condition": 2
 },
 {
  "rt": 675,
  "stimulus": "<p class='center-content'>Is this a smile?</p><p class='center-content'><img src='img/Andrew_Affiliation.jpg' height='410' width='730'></img></p>",
  "key_press": 80,
  "expr": "affiliation",
  "gend": "male",
  "name": "Andrew",
  "trial_type": "single-stim",
  "trial_index": 48,
  "time_elapsed": 114387,
  "internal_node_id": "0.0-1.0-47.0",
  "condition": 2
 },
 {
  "rt": 659,
  "stimulus": "<p class='center-content'>Is this a smile?</p><p class='center-content'><img src='img/KJ_Reward.jpg' height='410' width='730'></img></p>",
  "key_press": 80,
  "expr": "reward",
  "gend": "female",
  "name": "KJ",
  "trial_type": "single-stim",
  "trial_index": 49,
  "time_elapsed": 116052,
  "internal_node_id": "0.0-1.0-48.0",
  "condition": 2
 },
 {
  "rt": 5622,
  "stimulus": "<p class='center-content'>Is this a smile?</p><p class='center-content'><img src='img/Joeseph_Dominance.jpg' height='410' width='730'></img></p>",
  "key_press": 80,
  "expr": "dominance",
  "gend": "male",
  "name": "Joeseph",
  "trial_type": "single-stim",
  "trial_index": 50,
  "time_elapsed": 122676,
  "internal_node_id": "0.0-1.0-49.0",
  "condition": 2
 },
 {
  "rt": 659,
  "stimulus": "<p class='center-content'>Is this a smile?</p><p class='center-content'><img src='img/Andrew_Dominance.jpg' height='410' width='730'></img></p>",
  "key_press": 80,
  "expr": "dominance",
  "gend": "male",
  "name": "Andrew",
  "trial_type": "single-stim",
  "trial_index": 51,
  "time_elapsed": 124340,
  "internal_node_id": "0.0-1.0-50.0",
  "condition": 2
 },
 {
  "rt": 950,
  "stimulus": "<p class='center-content'>Is this a smile?</p><p class='center-content'><img src='img/Ashley.jpg' height='410' width='730'></img></p>",
  "key_press": 81,
  "expr": "neutral",
  "gend": "female",
  "name": "Ashley",
  "trial_type": "single-stim",
  "trial_index": 52,
  "time_elapsed": 126292,
  "internal_node_id": "0.0-1.0-51.0",
  "condition": 2
 },
 {
  "rt": 894,
  "stimulus": "<p class='center-content'>Is this a smile?</p><p class='center-content'><img src='img/Lulu_Dominance.jpg' height='410' width='730'></img></p>",
  "key_press": 80,
  "expr": "dominance",
  "gend": "female",
  "name": "Lulu",
  "trial_type": "single-stim",
  "trial_index": 53,
  "time_elapsed": 128188,
  "internal_node_id": "0.0-1.0-52.0",
  "condition": 2
 },
 {
  "rt": 1189,
  "stimulus": "<p class='center-content'>Is this a smile?</p><p class='center-content'><img src='img/Anna.jpg' height='410' width='730'></img></p>",
  "key_press": 80,
  "expr": "neutral",
  "gend": "female",
  "name": "Anna",
  "trial_type": "single-stim",
  "trial_index": 54,
  "time_elapsed": 130380,
  "internal_node_id": "0.0-1.0-53.0",
  "condition": 2
 },
 {
  "rt": 971,
  "stimulus": "<p class='center-content'>Is this a smile?</p><p class='center-content'><img src='img/Jessica.jpg' height='410' width='730'></img></p>",
  "key_press": 81,
  "expr": "neutral",
  "gend": "female",
  "name": "Jessica",
  "trial_type": "single-stim",
  "trial_index": 55,
  "time_elapsed": 132356,
  "internal_node_id": "0.0-1.0-54.0",
  "condition": 2
 },
 {
  "rt": 798,
  "stimulus": "<p class='center-content'>Is this a smile?</p><p class='center-content'><img src='img/Anthony.jpg' height='410' width='730'></img></p>",
  "key_press": 81,
  "expr": "neutral",
  "gend": "male",
  "name": "Anthony",
  "trial_type": "single-stim",
  "trial_index": 56,
  "time_elapsed": 134156,
  "internal_node_id": "0.0-1.0-55.0",
  "condition": 2
 },
 {
  "rt": 823,
  "stimulus": "<p class='center-content'>Is this a smile?</p><p class='center-content'><img src='img/Anna_Affiliation.jpg' height='410' width='730'></img></p>",
  "key_press": 80,
  "expr": "affiliation",
  "gend": "female",
  "name": "Anna",
  "trial_type": "single-stim",
  "trial_index": 57,
  "time_elapsed": 135981,
  "internal_node_id": "0.0-1.0-56.0",
  "condition": 2
 },
 {
  "rt": 994,
  "stimulus": "<p class='center-content'>Is this a smile?</p><p class='center-content'><img src='img/KJ_Disgust.jpg' height='410' width='730'></img></p>",
  "key_press": 81,
  "expr": "disgust",
  "gend": "female",
  "name": "KJ",
  "trial_type": "single-stim",
  "trial_index": 58,
  "time_elapsed": 137980,
  "internal_node_id": "0.0-1.0-57.0",
  "condition": 2
 },
 {
  "rt": 1116,
  "stimulus": "<p class='center-content'>Is this a smile?</p><p class='center-content'><img src='img/KJ.jpg' height='410' width='730'></img></p>",
  "key_press": 81,
  "expr": "neutral",
  "gend": "female",
  "name": "KJ",
  "trial_type": "single-stim",
  "trial_index": 59,
  "time_elapsed": 140100,
  "internal_node_id": "0.0-1.0-58.0",
  "condition": 2
 },
 {
  "rt": 950,
  "stimulus": "<p class='center-content'>Is this a smile?</p><p class='center-content'><img src='img/Dmonte_Reward.jpg' height='410' width='730'></img></p>",
  "key_press": 80,
  "expr": "reward",
  "gend": "male",
  "name": "Dmonte",
  "trial_type": "single-stim",
  "trial_index": 60,
  "time_elapsed": 142053,
  "internal_node_id": "0.0-1.0-59.0",
  "condition": 2
 },
 {
  "rt": 2901,
  "stimulus": "<p class='center-content'>Is this a smile?</p><p class='center-content'><img src='img/Marcus_Disgust.jpg' height='410' width='730'></img></p>",
  "key_press": 81,
  "expr": "disgust",
  "gend": "male",
  "name": "Marcus",
  "trial_type": "single-stim",
  "trial_index": 61,
  "time_elapsed": 145958,
  "internal_node_id": "0.0-1.0-60.0",
  "condition": 2
 },
 {
  "rt": 3258,
  "stimulus": "<p class='center-content'>Is this a smile?</p><p class='center-content'><img src='img/Dmonte_Dominance.jpg' height='410' width='730'></img></p>",
  "key_press": 80,
  "expr": "dominance",
  "gend": "male",
  "name": "Dmonte",
  "trial_type": "single-stim",
  "trial_index": 62,
  "time_elapsed": 150222,
  "internal_node_id": "0.0-1.0-61.0",
  "condition": 2
 },
 {
  "rt": 1389,
  "stimulus": "<p class='center-content'>Is this a smile?</p><p class='center-content'><img src='img/Ashley_Affiliation.jpg' height='410' width='730'></img></p>",
  "key_press": 80,
  "expr": "affiliation",
  "gend": "female",
  "name": "Ashley",
  "trial_type": "single-stim",
  "trial_index": 63,
  "time_elapsed": 152614,
  "internal_node_id": "0.0-1.0-62.0",
  "condition": 2
 },
 {
  "rt": 4266,
  "stimulus": "<p class='center-content'>Is this a smile?</p><p class='center-content'><img src='img/Jessica_Dominance.jpg' height='410' width='730'></img></p>",
  "key_press": 80,
  "expr": "dominance",
  "gend": "female",
  "name": "Jessica",
  "trial_type": "single-stim",
  "trial_index": 64,
  "time_elapsed": 157887,
  "internal_node_id": "0.0-1.0-63.0",
  "condition": 2
 },
 {
  "rt": 3415,
  "stimulus": "<p class='center-content'>Is this a smile?</p><p class='center-content'><img src='img/Anna_Dominance.jpg' height='410' width='730'></img></p>",
  "key_press": 80,
  "expr": "dominance",
  "gend": "female",
  "name": "Anna",
  "trial_type": "single-stim",
  "trial_index": 65,
  "time_elapsed": 162305,
  "internal_node_id": "0.0-1.0-64.0",
  "condition": 2
 },
 {
  "rt": 1254,
  "stimulus": "<p class='center-content'>Is this a smile?</p><p class='center-content'><img src='img/Jessica_Disgust.jpg' height='410' width='730'></img></p>",
  "key_press": 81,
  "expr": "disgust",
  "gend": "female",
  "name": "Jessica",
  "trial_type": "single-stim",
  "trial_index": 66,
  "time_elapsed": 164562,
  "internal_node_id": "0.0-1.0-65.0",
  "condition": 2
 },
 {
  "rt": 795,
  "stimulus": "<p class='center-content'>Is this a smile?</p><p class='center-content'><img src='img/Jessica_Affiliation.jpg' height='410' width='730'></img></p>",
  "key_press": 80,
  "expr": "affiliation",
  "gend": "female",
  "name": "Jessica",
  "trial_type": "single-stim",
  "trial_index": 67,
  "time_elapsed": 166361,
  "internal_node_id": "0.0-1.0-66.0",
  "condition": 2
 },
 {
  "rt": 1044,
  "stimulus": "<p class='center-content'>Is this a smile?</p><p class='center-content'><img src='img/Mary_Affiliation.jpg' height='410' width='730'></img></p>",
  "key_press": 80,
  "expr": "affiliation",
  "gend": "female",
  "name": "Mary",
  "trial_type": "single-stim",
  "trial_index": 68,
  "time_elapsed": 168409,
  "internal_node_id": "0.0-1.0-67.0",
  "condition": 2
 },
 {
  "rt": 1891,
  "stimulus": "<p class='center-content'>Is this a smile?</p><p class='center-content'><img src='img/Jourdan_Dominance.jpg' height='410' width='730'></img></p>",
  "key_press": 80,
  "expr": "dominance",
  "gend": "male",
  "name": "Jourdan",
  "trial_type": "single-stim",
  "trial_index": 69,
  "time_elapsed": 171306,
  "internal_node_id": "0.0-1.0-68.0",
  "condition": 2
 },
 {
  "rt": 1059,
  "stimulus": "<p class='center-content'>Is this a smile?</p><p class='center-content'><img src='img/Zach_Dominance.jpg' height='410' width='730'></img></p>",
  "key_press": 80,
  "expr": "dominance",
  "gend": "male",
  "name": "Zach",
  "trial_type": "single-stim",
  "trial_index": 70,
  "time_elapsed": 173370,
  "internal_node_id": "0.0-1.0-69.0",
  "condition": 2
 },
 {
  "rt": 2235,
  "stimulus": "<p class='center-content'>Is this a smile?</p><p class='center-content'><img src='img/Naomi_Affiliation.jpg' height='410' width='730'></img></p>",
  "key_press": 80,
  "expr": "affiliation",
  "gend": "female",
  "name": "Naomi",
  "trial_type": "single-stim",
  "trial_index": 71,
  "time_elapsed": 176608,
  "internal_node_id": "0.0-1.0-70.0",
  "condition": 2
 },
 {
  "rt": 2315,
  "stimulus": "<p class='center-content'>Is this a smile?</p><p class='center-content'><img src='img/Lulu_Reward.jpg' height='410' width='730'></img></p>",
  "key_press": 80,
  "expr": "reward",
  "gend": "female",
  "name": "Lulu",
  "trial_type": "single-stim",
  "trial_index": 72,
  "time_elapsed": 179924,
  "internal_node_id": "0.0-1.0-71.0",
  "condition": 2
 },
 {
  "rt": 3223,
  "stimulus": "<p class='center-content'>Is this a smile?</p><p class='center-content'><img src='img/Mary.jpg' height='410' width='730'></img></p>",
  "key_press": 81,
  "expr": "neutral",
  "gend": "female",
  "name": "Mary",
  "trial_type": "single-stim",
  "trial_index": 73,
  "time_elapsed": 184153,
  "internal_node_id": "0.0-1.0-72.0",
  "condition": 2
 },
 {
  "rt": 3008,
  "stimulus": "<p class='center-content'>Is this a smile?</p><p class='center-content'><img src='img/Anthony_Dominance.jpg' height='410' width='730'></img></p>",
  "key_press": 80,
  "expr": "dominance",
  "gend": "male",
  "name": "Anthony",
  "trial_type": "single-stim",
  "trial_index": 74,
  "time_elapsed": 188165,
  "internal_node_id": "0.0-1.0-73.0",
  "condition": 2
 },
 {
  "rt": 2074,
  "stimulus": "<p class='center-content'>Is this a smile?</p><p class='center-content'><img src='img/Anthony_Affiliation.jpg' height='410' width='730'></img></p>",
  "key_press": 80,
  "expr": "affiliation",
  "gend": "male",
  "name": "Anthony",
  "trial_type": "single-stim",
  "trial_index": 75,
  "time_elapsed": 191246,
  "internal_node_id": "0.0-1.0-74.0",
  "condition": 2
 },
 {
  "rt": 9188,
  "responses": "{\"Q0\":\"female\",\"Q1\":\"White/Caucasian/European American\",\"Q2\":\"right\",\"Q3\":\"q\",\"Q4\":\"p\"}",
  "trial_type": "survey-multi-choice",
  "trial_index": 76,
  "time_elapsed": 201449,
  "internal_node_id": "0.0-2.0"
 },
 {
  "rt": 1144,
  "key_press": 13,
  "trial_type": "text",
  "trial_index": 77,
  "time_elapsed": 203598,
  "internal_node_id": "0.0-3.0"
 }
]
    },
    "AcceptTime": "2017-11-18T01:20:43Z",
    "HITId": "32LAQ1JNT99U8CEAP978IEEKE9MTUG",
    "Assignment": "",
    "AssignmentStatus": "Submitted",
    "SubmitTime": "2017-11-18T01:21:18Z"
}