{
    "AutoApprovalTime": "2017-11-18T01:36:18Z",
    "AssignmentId": "3JPSL1DZ5TJFKATLCA97YYRFU1BNA5",
    "WorkerId": "subject3",
    "answers": {
        "data": 
[
 {
  "rt": 40344,
  "key_press": 32,
  "trial_type": "text",
  "trial_index": 0,
  "time_elapsed": 40347,
  "internal_node_id": "0.0-0.0"
 },
 {
  "rt": 3534,
  "stimulus": "<p class='center-content'>Is this a smile?</p><p class='center-content'><img src='img/Maurice_Reward.jpg' height='410' width='730'></img></p>",
  "key_press": 81,
  "expr": "reward",
  "gend": "male",
  "name": "Maurice",
  "trial_type": "single-stim",
  "trial_index": 1,
  "time_elapsed": 45890,
  "internal_node_id": "0.0-1.0-0.0",
  "condition": 1
 },
 {
  "rt": 3940,
  "stimulus": "<p class='center-content'>Is this a smile?</p><p class='center-content'><img src='img/Ashley_Dominance.jpg' height='410' width='730'></img></p>",
  "key_press": 81,
  "expr": "dominance",
  "gend": "female",
  "name": "Ashley",
  "trial_type": "single-stim",
  "trial_index": 2,
  "time_elapsed": 50835,
  "internal_node_id": "0.0-1.0-1.0",
  "condition": 1
 },
 {
  "rt": 3674,
  "stimulus": "<p class='center-content'>Is this a smile?</p><p class='center-content'><img src='img/Joeseph.jpg' height='410' width='730'></img></p>",
  "key_press": 80,
  "expr": "neutral",
  "gend": "male",
  "name": "Joeseph",
  "trial_type": "single-stim",
  "trial_index": 3,
  "time_elapsed": 55512,
  "internal_node_id": "0.0-1.0-2.0",
  "condition": 1
 },
 {
  "rt": 5609,
  "stimulus": "<p class='center-content'>Is this a smile?</p><p class='center-content'><img src='img/Marcus.jpg' height='410' width='730'></img></p>",
  "key_press": 80,
  "expr": "neutral",
  "gend": "male",
  "name": "Marcus",
  "trial_type": "single-stim",
  "trial_index": 4,
  "time_elapsed": 62124,
  "internal_node_id": "0.0-1.0-3.0",
  "condition": 1
 },
 {
  "rt": 2736,
  "stimulus": "<p class='center-content'>Is this a smile?</p><p class='center-content'><img src='img/Ashley.jpg' height='410' width='730'></img></p>",
  "key_press": 80,
  "expr": "neutral",
  "gend": "female",
  "name": "Ashley",
  "trial_type": "single-stim",
  "trial_index": 5,
  "time_elapsed": 65867,
  "internal_node_id": "0.0-1.0-4.0",
  "condition": 1
 },
 {
  "rt": 2212,
  "stimulus": "<p class='center-content'>Is this a smile?</p><p class='center-content'><img src='img/Lulu_Reward.jpg' height='410' width='730'></img></p>",
  "key_press": 81,
  "expr": "reward",
  "gend": "female",
  "name": "Lulu",
  "trial_type": "single-stim",
  "trial_index": 6,
  "time_elapsed": 69083,
  "internal_node_id": "0.0-1.0-5.0",
  "condition": 1
 },
 {
  "rt": 1938,
  "stimulus": "<p class='center-content'>Is this a smile?</p><p class='center-content'><img src='img/Naomi.jpg' height='410' width='730'></img></p>",
  "key_press": 81,
  "expr": "neutral",
  "gend": "female",
  "name": "Naomi",
  "trial_type": "single-stim",
  "trial_index": 7,
  "time_elapsed": 72027,
  "internal_node_id": "0.0-1.0-6.0",
  "condition": 1
 },
 {
  "rt": 3478,
  "stimulus": "<p class='center-content'>Is this a smile?</p><p class='center-content'><img src='img/Dmonte_Dominance.jpg' height='410' width='730'></img></p>",
  "key_press": 80,
  "expr": "dominance",
  "gend": "male",
  "name": "Dmonte",
  "trial_type": "single-stim",
  "trial_index": 8,
  "time_elapsed": 76509,
  "internal_node_id": "0.0-1.0-7.0",
  "condition": 1
 },
 {
  "rt": 2107,
  "stimulus": "<p class='center-content'>Is this a smile?</p><p class='center-content'><img src='img/Mary_Disgust.jpg' height='410' width='730'></img></p>",
  "key_press": 80,
  "expr": "disgust",
  "gend": "female",
  "name": "Mary",
  "trial_type": "single-stim",
  "trial_index": 9,
  "time_elapsed": 79620,
  "internal_node_id": "0.0-1.0-8.0",
  "condition": 1
 },
 {
  "rt": 3028,
  "stimulus": "<p class='center-content'>Is this a smile?</p><p class='center-content'><img src='img/Andrew_Dominance.jpg' height='410' width='730'></img></p>",
  "key_press": 81,
  "expr": "dominance",
  "gend": "male",
  "name": "Andrew",
  "trial_type": "single-stim",
  "trial_index": 10,
  "time_elapsed": 83653,
  "internal_node_id": "0.0-1.0-9.0",
  "condition": 1
 },
 {
  "rt": 2662,
  "stimulus": "<p class='center-content'>Is this a smile?</p><p class='center-content'><img src='img/KJ_Dominance.jpg' height='410' width='730'></img></p>",
  "key_press": 81,
  "expr": "dominance",
  "gend": "female",
  "name": "KJ",
  "trial_type": "single-stim",
  "trial_index": 11,
  "time_elapsed": 87318,
  "internal_node_id": "0.0-1.0-10.0",
  "condition": 1
 },
 {
  "rt": 3556,
  "stimulus": "<p class='center-content'>Is this a smile?</p><p class='center-content'><img src='img/Lulu.jpg' height='410' width='730'></img></p>",
  "key_press": 80,
  "expr": "neutral",
  "gend": "female",
  "name": "Lulu",
  "trial_type": "single-stim",
  "trial_index": 12,
  "time_elapsed": 91878,
  "internal_node_id": "0.0-1.0-11.0",
  "condition": 1
 },
 {
  "rt": 3532,
  "stimulus": "<p class='center-content'>Is this a smile?</p><p class='center-content'><img src='img/Jourdan.jpg' height='410' width='730'></img></p>",
  "key_press": 80,
  "expr": "neutral",
  "gend": "male",
  "name": "Jourdan",
  "trial_type": "single-stim",
  "trial_index": 13,
  "time_elapsed": 96413,
  "internal_node_id": "0.0-1.0-12.0",
  "condition": 1
 },
 {
  "rt": 2402,
  "stimulus": "<p class='center-content'>Is this a smile?</p><p class='center-content'><img src='img/Jessica_Dominance.jpg' height='410' width='730'></img></p>",
  "key_press": 81,
  "expr": "dominance",
  "gend": "female",
  "name": "Jessica",
  "trial_type": "single-stim",
  "trial_index": 14,
  "time_elapsed": 99822,
  "internal_node_id": "0.0-1.0-13.0",
  "condition": 1
 },
 {
  "rt": 1515,
  "stimulus": "<p class='center-content'>Is this a smile?</p><p class='center-content'><img src='img/Anna_Reward.jpg' height='410' width='730'></img></p>",
  "key_press": 81,
  "expr": "reward",
  "gend": "female",
  "name": "Anna",
  "trial_type": "single-stim",
  "trial_index": 15,
  "time_elapsed": 102341,
  "internal_node_id": "0.0-1.0-14.0",
  "condition": 1
 },
 {
  "rt": 3393,
  "stimulus": "<p class='center-content'>Is this a smile?</p><p class='center-content'><img src='img/Joeseph_Dominance.jpg' height='410' width='730'></img></p>",
  "key_press": 80,
  "expr": "dominance",
  "gend": "male",
  "name": "Joeseph",
  "trial_type": "single-stim",
  "trial_index": 16,
  "time_elapsed": 106738,
  "internal_node_id": "0.0-1.0-15.0",
  "condition": 1
 },
 {
  "rt": 5629,
  "stimulus": "<p class='center-content'>Is this a smile?</p><p class='center-content'><img src='img/Maurice.jpg' height='410' width='730'></img></p>",
  "key_press": 81,
  "expr": "neutral",
  "gend": "male",
  "name": "Maurice",
  "trial_type": "single-stim",
  "trial_index": 17,
  "time_elapsed": 113373,
  "internal_node_id": "0.0-1.0-16.0",
  "condition": 1
 },
 {
  "rt": 1658,
  "stimulus": "<p class='center-content'>Is this a smile?</p><p class='center-content'><img src='img/Zach_Affiliation.jpg' height='410' width='730'></img></p>",
  "key_press": 81,
  "expr": "affiliation",
  "gend": "male",
  "name": "Zach",
  "trial_type": "single-stim",
  "trial_index": 18,
  "time_elapsed": 116037,
  "internal_node_id": "0.0-1.0-17.0",
  "condition": 1
 },
 {
  "rt": 3059,
  "stimulus": "<p class='center-content'>Is this a smile?</p><p class='center-content'><img src='img/Jourdan_Dominance.jpg' height='410' width='730'></img></p>",
  "key_press": 80,
  "expr": "dominance",
  "gend": "male",
  "name": "Jourdan",
  "trial_type": "single-stim",
  "trial_index": 19,
  "time_elapsed": 120101,
  "internal_node_id": "0.0-1.0-18.0",
  "condition": 1
 },
 {
  "rt": 2419,
  "stimulus": "<p class='center-content'>Is this a smile?</p><p class='center-content'><img src='img/Lulu_Affiliation.jpg' height='410' width='730'></img></p>",
  "key_press": 81,
  "expr": "affiliation",
  "gend": "female",
  "name": "Lulu",
  "trial_type": "single-stim",
  "trial_index": 20,
  "time_elapsed": 123526,
  "internal_node_id": "0.0-1.0-19.0",
  "condition": 1
 },
 {
  "rt": 2028,
  "stimulus": "<p class='center-content'>Is this a smile?</p><p class='center-content'><img src='img/Maurice_Disgust.jpg' height='410' width='730'></img></p>",
  "key_press": 80,
  "expr": "disgust",
  "gend": "male",
  "name": "Maurice",
  "trial_type": "single-stim",
  "trial_index": 21,
  "time_elapsed": 126556,
  "internal_node_id": "0.0-1.0-20.0",
  "condition": 1
 },
 {
  "rt": 1748,
  "stimulus": "<p class='center-content'>Is this a smile?</p><p class='center-content'><img src='img/Marcus_Disgust.jpg' height='410' width='730'></img></p>",
  "key_press": 80,
  "expr": "disgust",
  "gend": "male",
  "name": "Marcus",
  "trial_type": "single-stim",
  "trial_index": 22,
  "time_elapsed": 129308,
  "internal_node_id": "0.0-1.0-21.0",
  "condition": 1
 },
 {
  "rt": 1620,
  "stimulus": "<p class='center-content'>Is this a smile?</p><p class='center-content'><img src='img/Marcus_Reward.jpg' height='410' width='730'></img></p>",
  "key_press": 81,
  "expr": "reward",
  "gend": "male",
  "name": "Marcus",
  "trial_type": "single-stim",
  "trial_index": 23,
  "time_elapsed": 131932,
  "internal_node_id": "0.0-1.0-22.0",
  "condition": 1
 },
 {
  "rt": 2162,
  "stimulus": "<p class='center-content'>Is this a smile?</p><p class='center-content'><img src='img/Dmonte.jpg' height='410' width='730'></img></p>",
  "key_press": 80,
  "expr": "neutral",
  "gend": "male",
  "name": "Dmonte",
  "trial_type": "single-stim",
  "trial_index": 24,
  "time_elapsed": 135101,
  "internal_node_id": "0.0-1.0-23.0",
  "condition": 1
 },
 {
  "rt": 1603,
  "stimulus": "<p class='center-content'>Is this a smile?</p><p class='center-content'><img src='img/Naomi_Reward.jpg' height='410' width='730'></img></p>",
  "key_press": 81,
  "expr": "reward",
  "gend": "female",
  "name": "Naomi",
  "trial_type": "single-stim",
  "trial_index": 25,
  "time_elapsed": 137708,
  "internal_node_id": "0.0-1.0-24.0",
  "condition": 1
 },
 {
  "rt": 1555,
  "stimulus": "<p class='center-content'>Is this a smile?</p><p class='center-content'><img src='img/Anthony_Reward.jpg' height='410' width='730'></img></p>",
  "key_press": 81,
  "expr": "reward",
  "gend": "male",
  "name": "Anthony",
  "trial_type": "single-stim",
  "trial_index": 26,
  "time_elapsed": 140268,
  "internal_node_id": "0.0-1.0-25.0",
  "condition": 1
 },
 {
  "rt": 1852,
  "stimulus": "<p class='center-content'>Is this a smile?</p><p class='center-content'><img src='img/Andrew_Disgust.jpg' height='410' width='730'></img></p>",
  "key_press": 80,
  "expr": "disgust",
  "gend": "male",
  "name": "Andrew",
  "trial_type": "single-stim",
  "trial_index": 27,
  "time_elapsed": 143124,
  "internal_node_id": "0.0-1.0-26.0",
  "condition": 1
 },
 {
  "rt": 1348,
  "stimulus": "<p class='center-content'>Is this a smile?</p><p class='center-content'><img src='img/Zach_Disgust.jpg' height='410' width='730'></img></p>",
  "key_press": 80,
  "expr": "disgust",
  "gend": "male",
  "name": "Zach",
  "trial_type": "single-stim",
  "trial_index": 28,
  "time_elapsed": 145476,
  "internal_node_id": "0.0-1.0-27.0",
  "condition": 1
 },
 {
  "rt": 1571,
  "stimulus": "<p class='center-content'>Is this a smile?</p><p class='center-content'><img src='img/Jourdan_Reward.jpg' height='410' width='730'></img></p>",
  "key_press": 81,
  "expr": "reward",
  "gend": "male",
  "name": "Jourdan",
  "trial_type": "single-stim",
  "trial_index": 29,
  "time_elapsed": 148051,
  "internal_node_id": "0.0-1.0-28.0",
  "condition": 1
 },
 {
  "rt": 1372,
  "stimulus": "<p class='center-content'>Is this a smile?</p><p class='center-content'><img src='img/Lulu_Disgust.jpg' height='410' width='730'></img></p>",
  "key_press": 80,
  "expr": "disgust",
  "gend": "female",
  "name": "Lulu",
  "trial_type": "single-stim",
  "trial_index": 30,
  "time_elapsed": 150427,
  "internal_node_id": "0.0-1.0-29.0",
  "condition": 1
 },
 {
  "rt": 5005,
  "stimulus": "<p class='center-content'>Is this a smile?</p><p class='center-content'><img src='img/Anthony_Affiliation.jpg' height='410' width='730'></img></p>",
  "key_press": 80,
  "expr": "affiliation",
  "gend": "male",
  "name": "Anthony",
  "trial_type": "single-stim",
  "trial_index": 31,
  "time_elapsed": 156436,
  "internal_node_id": "0.0-1.0-30.0",
  "condition": 1
 },
 {
  "rt": 1249,
  "stimulus": "<p class='center-content'>Is this a smile?</p><p class='center-content'><img src='img/KJ_Disgust.jpg' height='410' width='730'></img></p>",
  "key_press": 80,
  "expr": "disgust",
  "gend": "female",
  "name": "KJ",
  "trial_type": "single-stim",
  "trial_index": 32,
  "time_elapsed": 158691,
  "internal_node_id": "0.0-1.0-31.0",
  "condition": 1
 },
 {
  "rt": 1605,
  "stimulus": "<p class='center-content'>Is this a smile?</p><p class='center-content'><img src='img/Joeseph_Reward.jpg' height='410' width='730'></img></p>",
  "key_press": 81,
  "expr": "reward",
  "gend": "male",
  "name": "Joeseph",
  "trial_type": "single-stim",
  "trial_index": 33,
  "time_elapsed": 161299,
  "internal_node_id": "0.0-1.0-32.0",
  "condition": 1
 },
 {
  "rt": 1780,
  "stimulus": "<p class='center-content'>Is this a smile?</p><p class='center-content'><img src='img/Zach_Dominance.jpg' height='410' width='730'></img></p>",
  "key_press": 81,
  "expr": "dominance",
  "gend": "male",
  "name": "Zach",
  "trial_type": "single-stim",
  "trial_index": 34,
  "time_elapsed": 164083,
  "internal_node_id": "0.0-1.0-33.0",
  "condition": 1
 },
 {
  "rt": 2068,
  "stimulus": "<p class='center-content'>Is this a smile?</p><p class='center-content'><img src='img/Jessica.jpg' height='410' width='730'></img></p>",
  "key_press": 81,
  "expr": "neutral",
  "gend": "female",
  "name": "Jessica",
  "trial_type": "single-stim",
  "trial_index": 35,
  "time_elapsed": 167155,
  "internal_node_id": "0.0-1.0-34.0",
  "condition": 1
 },
 {
  "rt": 1242,
  "stimulus": "<p class='center-content'>Is this a smile?</p><p class='center-content'><img src='img/KJ_Affiliation.jpg' height='410' width='730'></img></p>",
  "key_press": 81,
  "expr": "affiliation",
  "gend": "female",
  "name": "KJ",
  "trial_type": "single-stim",
  "trial_index": 36,
  "time_elapsed": 169403,
  "internal_node_id": "0.0-1.0-35.0",
  "condition": 1
 },
 {
  "rt": 1443,
  "stimulus": "<p class='center-content'>Is this a smile?</p><p class='center-content'><img src='img/Anna_Affiliation.jpg' height='410' width='730'></img></p>",
  "key_press": 81,
  "expr": "affiliation",
  "gend": "female",
  "name": "Anna",
  "trial_type": "single-stim",
  "trial_index": 37,
  "time_elapsed": 171851,
  "internal_node_id": "0.0-1.0-36.0",
  "condition": 1
 },
 {
  "rt": 1897,
  "stimulus": "<p class='center-content'>Is this a smile?</p><p class='center-content'><img src='img/Ashley_Disgust.jpg' height='410' width='730'></img></p>",
  "key_press": 80,
  "expr": "disgust",
  "gend": "female",
  "name": "Ashley",
  "trial_type": "single-stim",
  "trial_index": 38,
  "time_elapsed": 174755,
  "internal_node_id": "0.0-1.0-37.0",
  "condition": 1
 },
 {
  "rt": 2261,
  "stimulus": "<p class='center-content'>Is this a smile?</p><p class='center-content'><img src='img/Mary_Affiliation.jpg' height='410' width='730'></img></p>",
  "key_press": 81,
  "expr": "affiliation",
  "gend": "female",
  "name": "Mary",
  "trial_type": "single-stim",
  "trial_index": 39,
  "time_elapsed": 178020,
  "internal_node_id": "0.0-1.0-38.0",
  "condition": 1
 },
 {
  "rt": 1379,
  "stimulus": "<p class='center-content'>Is this a smile?</p><p class='center-content'><img src='img/Andrew_Affiliation.jpg' height='410' width='730'></img></p>",
  "key_press": 81,
  "expr": "affiliation",
  "gend": "male",
  "name": "Andrew",
  "trial_type": "single-stim",
  "trial_index": 40,
  "time_elapsed": 180403,
  "internal_node_id": "0.0-1.0-39.0",
  "condition": 1
 },
 {
  "rt": 3364,
  "stimulus": "<p class='center-content'>Is this a smile?</p><p class='center-content'><img src='img/Naomi_Dominance.jpg' height='410' width='730'></img></p>",
  "key_press": 80,
  "expr": "dominance",
  "gend": "female",
  "name": "Naomi",
  "trial_type": "single-stim",
  "trial_index": 41,
  "time_elapsed": 184771,
  "internal_node_id": "0.0-1.0-40.0",
  "condition": 1
 },
 {
  "rt": 1474,
  "stimulus": "<p class='center-content'>Is this a smile?</p><p class='center-content'><img src='img/Andrew.jpg' height='410' width='730'></img></p>",
  "key_press": 80,
  "expr": "neutral",
  "gend": "male",
  "name": "Andrew",
  "trial_type": "single-stim",
  "trial_index": 42,
  "time_elapsed": 187250,
  "internal_node_id": "0.0-1.0-41.0",
  "condition": 1
 },
 {
  "rt": 4431,
  "stimulus": "<p class='center-content'>Is this a smile?</p><p class='center-content'><img src='img/Mary_Dominance.jpg' height='410' width='730'></img></p>",
  "key_press": 81,
  "expr": "dominance",
  "gend": "female",
  "name": "Mary",
  "trial_type": "single-stim",
  "trial_index": 43,
  "time_elapsed": 192686,
  "internal_node_id": "0.0-1.0-42.0",
  "condition": 1
 },
 {
  "rt": 1969,
  "stimulus": "<p class='center-content'>Is this a smile?</p><p class='center-content'><img src='img/Anthony.jpg' height='410' width='730'></img></p>",
  "key_press": 80,
  "expr": "neutral",
  "gend": "male",
  "name": "Anthony",
  "trial_type": "single-stim",
  "trial_index": 44,
  "time_elapsed": 195661,
  "internal_node_id": "0.0-1.0-43.0",
  "condition": 1
 },
 {
  "rt": 1756,
  "stimulus": "<p class='center-content'>Is this a smile?</p><p class='center-content'><img src='img/Marcus_Dominance.jpg' height='410' width='730'></img></p>",
  "key_press": 80,
  "expr": "dominance",
  "gend": "male",
  "name": "Marcus",
  "trial_type": "single-stim",
  "trial_index": 45,
  "time_elapsed": 198421,
  "internal_node_id": "0.0-1.0-44.0",
  "condition": 1
 },
 {
  "rt": 1729,
  "stimulus": "<p class='center-content'>Is this a smile?</p><p class='center-content'><img src='img/Maurice_Affiliation.jpg' height='410' width='730'></img></p>",
  "key_press": 81,
  "expr": "affiliation",
  "gend": "male",
  "name": "Maurice",
  "trial_type": "single-stim",
  "trial_index": 46,
  "time_elapsed": 201156,
  "internal_node_id": "0.0-1.0-45.0",
  "condition": 1
 },
 {
  "rt": 1981,
  "stimulus": "<p class='center-content'>Is this a smile?</p><p class='center-content'><img src='img/Maurice_Dominance.jpg' height='410' width='730'></img></p>",
  "key_press": 81,
  "expr": "dominance",
  "gend": "male",
  "name": "Maurice",
  "trial_type": "single-stim",
  "trial_index": 47,
  "time_elapsed": 204141,
  "internal_node_id": "0.0-1.0-46.0",
  "condition": 1
 },
 {
  "rt": 1499,
  "stimulus": "<p class='center-content'>Is this a smile?</p><p class='center-content'><img src='img/Jourdan_Disgust.jpg' height='410' width='730'></img></p>",
  "key_press": 80,
  "expr": "disgust",
  "gend": "male",
  "name": "Jourdan",
  "trial_type": "single-stim",
  "trial_index": 48,
  "time_elapsed": 206644,
  "internal_node_id": "0.0-1.0-47.0",
  "condition": 1
 },
 {
  "rt": 1332,
  "stimulus": "<p class='center-content'>Is this a smile?</p><p class='center-content'><img src='img/KJ.jpg' height='410' width='730'></img></p>",
  "key_press": 80,
  "expr": "neutral",
  "gend": "female",
  "name": "KJ",
  "trial_type": "single-stim",
  "trial_index": 49,
  "time_elapsed": 208980,
  "internal_node_id": "0.0-1.0-48.0",
  "condition": 1
 },
 {
  "rt": 1253,
  "stimulus": "<p class='center-content'>Is this a smile?</p><p class='center-content'><img src='img/Anna_Disgust.jpg' height='410' width='730'></img></p>",
  "key_press": 80,
  "expr": "disgust",
  "gend": "female",
  "name": "Anna",
  "trial_type": "single-stim",
  "trial_index": 50,
  "time_elapsed": 211236,
  "internal_node_id": "0.0-1.0-49.0",
  "condition": 1
 },
 {
  "rt": 1747,
  "stimulus": "<p class='center-content'>Is this a smile?</p><p class='center-content'><img src='img/Marcus_Affiliation.jpg' height='410' width='730'></img></p>",
  "key_press": 81,
  "expr": "affiliation",
  "gend": "male",
  "name": "Marcus",
  "trial_type": "single-stim",
  "trial_index": 51,
  "time_elapsed": 213988,
  "internal_node_id": "0.0-1.0-50.0",
  "condition": 1
 },
 {
  "rt": 1324,
  "stimulus": "<p class='center-content'>Is this a smile?</p><p class='center-content'><img src='img/Ashley_Affiliation.jpg' height='410' width='730'></img></p>",
  "key_press": 81,
  "expr": "affiliation",
  "gend": "female",
  "name": "Ashley",
  "trial_type": "single-stim",
  "trial_index": 52,
  "time_elapsed": 216317,
  "internal_node_id": "0.0-1.0-51.0",
  "condition": 1
 },
 {
  "rt": 1587,
  "stimulus": "<p class='center-content'>Is this a smile?</p><p class='center-content'><img src='img/Mary.jpg' height='410' width='730'></img></p>",
  "key_press": 80,
  "expr": "neutral",
  "gend": "female",
  "name": "Mary",
  "trial_type": "single-stim",
  "trial_index": 53,
  "time_elapsed": 218908,
  "internal_node_id": "0.0-1.0-52.0",
  "condition": 1
 },
 {
  "rt": 1572,
  "stimulus": "<p class='center-content'>Is this a smile?</p><p class='center-content'><img src='img/Zach_Reward.jpg' height='410' width='730'></img></p>",
  "key_press": 81,
  "expr": "reward",
  "gend": "male",
  "name": "Zach",
  "trial_type": "single-stim",
  "trial_index": 54,
  "time_elapsed": 221484,
  "internal_node_id": "0.0-1.0-53.0",
  "condition": 1
 },
 {
  "rt": 2171,
  "stimulus": "<p class='center-content'>Is this a smile?</p><p class='center-content'><img src='img/Anna_Dominance.jpg' height='410' width='730'></img></p>",
  "key_press": 81,
  "expr": "dominance",
  "gend": "female",
  "name": "Anna",
  "trial_type": "single-stim",
  "trial_index": 55,
  "time_elapsed": 224660,
  "internal_node_id": "0.0-1.0-54.0",
  "condition": 1
 },
 {
  "rt": 1626,
  "stimulus": "<p class='center-content'>Is this a smile?</p><p class='center-content'><img src='img/Zach.jpg' height='410' width='730'></img></p>",
  "key_press": 80,
  "expr": "neutral",
  "gend": "male",
  "name": "Zach",
  "trial_type": "single-stim",
  "trial_index": 56,
  "time_elapsed": 227292,
  "internal_node_id": "0.0-1.0-55.0",
  "condition": 1
 },
 {
  "rt": 1331,
  "stimulus": "<p class='center-content'>Is this a smile?</p><p class='center-content'><img src='img/Jessica_Disgust.jpg' height='410' width='730'></img></p>",
  "key_press": 80,
  "expr": "disgust",
  "gend": "female",
  "name": "Jessica",
  "trial_type": "single-stim",
  "trial_index": 57,
  "time_elapsed": 229627,
  "internal_node_id": "0.0-1.0-56.0",
  "condition": 1
 },
 {
  "rt": 1660,
  "stimulus": "<p class='center-content'>Is this a smile?</p><p class='center-content'><img src='img/Lulu_Dominance.jpg' height='410' width='730'></img></p>",
  "key_press": 81,
  "expr": "dominance",
  "gend": "female",
  "name": "Lulu",
  "trial_type": "single-stim",
  "trial_index": 58,
  "time_elapsed": 232291,
  "internal_node_id": "0.0-1.0-57.0",
  "condition": 1
 },
 {
  "rt": 1228,
  "stimulus": "<p class='center-content'>Is this a smile?</p><p class='center-content'><img src='img/Jessica_Reward.jpg' height='410' width='730'></img></p>",
  "key_press": 81,
  "expr": "reward",
  "gend": "female",
  "name": "Jessica",
  "trial_type": "single-stim",
  "trial_index": 59,
  "time_elapsed": 234523,
  "internal_node_id": "0.0-1.0-58.0",
  "condition": 1
 },
 {
  "rt": 1301,
  "stimulus": "<p class='center-content'>Is this a smile?</p><p class='center-content'><img src='img/Jessica_Affiliation.jpg' height='410' width='730'></img></p>",
  "key_press": 81,
  "expr": "affiliation",
  "gend": "female",
  "name": "Jessica",
  "trial_type": "single-stim",
  "trial_index": 60,
  "time_elapsed": 236827,
  "internal_node_id": "0.0-1.0-59.0",
  "condition": 1
 },
 {
  "rt": 2398,
  "stimulus": "<p class='center-content'>Is this a smile?</p><p class='center-content'><img src='img/Anna.jpg' height='410' width='730'></img></p>",
  "key_press": 80,
  "expr": "neutral",
  "gend": "female",
  "name": "Anna",
  "trial_type": "single-stim",
  "trial_index": 61,
  "time_elapsed": 240228,
  "internal_node_id": "0.0-1.0-60.0",
  "condition": 1
 },
 {
  "rt": 1500,
  "stimulus": "<p class='center-content'>Is this a smile?</p><p class='center-content'><img src='img/Jourdan_Affiliation.jpg' height='410' width='730'></img></p>",
  "key_press": 81,
  "expr": "affiliation",
  "gend": "male",
  "name": "Jourdan",
  "trial_type": "single-stim",
  "trial_index": 62,
  "time_elapsed": 242731,
  "internal_node_id": "0.0-1.0-61.0",
  "condition": 1
 },
 {
  "rt": 1476,
  "stimulus": "<p class='center-content'>Is this a smile?</p><p class='center-content'><img src='img/Joeseph_Affiliation.jpg' height='410' width='730'></img></p>",
  "key_press": 81,
  "expr": "affiliation",
  "gend": "male",
  "name": "Joeseph",
  "trial_type": "single-stim",
  "trial_index": 63,
  "time_elapsed": 245211,
  "internal_node_id": "0.0-1.0-62.0",
  "condition": 1
 },
 {
  "rt": 2250,
  "stimulus": "<p class='center-content'>Is this a smile?</p><p class='center-content'><img src='img/Anthony_Dominance.jpg' height='410' width='730'></img></p>",
  "key_press": 80,
  "expr": "dominance",
  "gend": "male",
  "name": "Anthony",
  "trial_type": "single-stim",
  "trial_index": 64,
  "time_elapsed": 248467,
  "internal_node_id": "0.0-1.0-63.0",
  "condition": 1
 },
 {
  "rt": 1210,
  "stimulus": "<p class='center-content'>Is this a smile?</p><p class='center-content'><img src='img/Anthony_Disgust.jpg' height='410' width='730'></img></p>",
  "key_press": 80,
  "expr": "disgust",
  "gend": "male",
  "name": "Anthony",
  "trial_type": "single-stim",
  "trial_index": 65,
  "time_elapsed": 250684,
  "internal_node_id": "0.0-1.0-64.0",
  "condition": 1
 },
 {
  "rt": 1364,
  "stimulus": "<p class='center-content'>Is this a smile?</p><p class='center-content'><img src='img/KJ_Reward.jpg' height='410' width='730'></img></p>",
  "key_press": 81,
  "expr": "reward",
  "gend": "female",
  "name": "KJ",
  "trial_type": "single-stim",
  "trial_index": 66,
  "time_elapsed": 253051,
  "internal_node_id": "0.0-1.0-65.0",
  "condition": 1
 },
 {
  "rt": 1563,
  "stimulus": "<p class='center-content'>Is this a smile?</p><p class='center-content'><img src='img/Dmonte_Disgust.jpg' height='410' width='730'></img></p>",
  "key_press": 80,
  "expr": "disgust",
  "gend": "male",
  "name": "Dmonte",
  "trial_type": "single-stim",
  "trial_index": 67,
  "time_elapsed": 255619,
  "internal_node_id": "0.0-1.0-66.0",
  "condition": 1
 },
 {
  "rt": 1378,
  "stimulus": "<p class='center-content'>Is this a smile?</p><p class='center-content'><img src='img/Dmonte_Reward.jpg' height='410' width='730'></img></p>",
  "key_press": 81,
  "expr": "reward",
  "gend": "male",
  "name": "Dmonte",
  "trial_type": "single-stim",
  "trial_index": 68,
  "time_elapsed": 258003,
  "internal_node_id": "0.0-1.0-67.0",
  "condition": 1
 },
 {
  "rt": 1273,
  "stimulus": "<p class='center-content'>Is this a smile?</p><p class='center-content'><img src='img/Mary_Reward.jpg' height='410' width='730'></img></p>",
  "key_press": 81,
  "expr": "reward",
  "gend": "female",
  "name": "Mary",
  "trial_type": "single-stim",
  "trial_index": 69,
  "time_elapsed": 260283,
  "internal_node_id": "0.0-1.0-68.0",
  "condition": 1
 },
 {
  "rt": 17437,
  "stimulus": "<p class='center-content'>Is this a smile?</p><p class='center-content'><img src='img/Naomi_Disgust.jpg' height='410' width='730'></img></p>",
  "key_press": 81,
  "expr": "disgust",
  "gend": "female",
  "name": "Naomi",
  "trial_type": "single-stim",
  "trial_index": 70,
  "time_elapsed": 278725,
  "internal_node_id": "0.0-1.0-69.0",
  "condition": 1
 },
 {
  "rt": 1700,
  "stimulus": "<p class='center-content'>Is this a smile?</p><p class='center-content'><img src='img/Joeseph_Disgust.jpg' height='410' width='730'></img></p>",
  "key_press": 80,
  "expr": "disgust",
  "gend": "male",
  "name": "Joeseph",
  "trial_type": "single-stim",
  "trial_index": 71,
  "time_elapsed": 281429,
  "internal_node_id": "0.0-1.0-70.0",
  "condition": 1
 },
 {
  "rt": 1604,
  "stimulus": "<p class='center-content'>Is this a smile?</p><p class='center-content'><img src='img/Naomi_Affiliation.jpg' height='410' width='730'></img></p>",
  "key_press": 81,
  "expr": "affiliation",
  "gend": "female",
  "name": "Naomi",
  "trial_type": "single-stim",
  "trial_index": 72,
  "time_elapsed": 284036,
  "internal_node_id": "0.0-1.0-71.0",
  "condition": 1
 },
 {
  "rt": 1365,
  "stimulus": "<p class='center-content'>Is this a smile?</p><p class='center-content'><img src='img/Dmonte_Affiliation.jpg' height='410' width='730'></img></p>",
  "key_press": 81,
  "expr": "affiliation",
  "gend": "male",
  "name": "Dmonte",
  "trial_type": "single-stim",
  "trial_index": 73,
  "time_elapsed": 286404,
  "internal_node_id": "0.0-1.0-72.0",
  "condition": 1
 },
 {
  "rt": 1085,
  "stimulus": "<p class='center-content'>Is this a smile?</p><p class='center-content'><img src='img/Ashley_Reward.jpg' height='410' width='730'></img></p>",
  "key_press": 81,
  "expr": "reward",
  "gend": "female",
  "name": "Ashley",
  "trial_type": "single-stim",
  "trial_index": 74,
  "time_elapsed": 288492,
  "internal_node_id": "0.0-1.0-73.0",
  "condition": 1
 },
 {
  "rt": 1077,
  "stimulus": "<p class='center-content'>Is this a smile?</p><p class='center-content'><img src='img/Andrew_Reward.jpg' height='410' width='730'></img></p>",
  "key_press": 81,
  "expr": "reward",
  "gend": "male",
  "name": "Andrew",
  "trial_type": "single-stim",
  "trial_index": 75,
  "time_elapsed": 290573,
  "internal_node_id": "0.0-1.0-74.0",
  "condition": 1
 },
 {
  "rt": 73834,
  "responses": "{\"Q0\":\"Female\",\"Q1\":\"White/Caucasian/European American\",\"Q2\":\"right\",\"Q3\":\"Q\",\"Q4\":\"P\"}",
  "trial_type": "survey-multi-choice",
  "trial_index": 76,
  "time_elapsed": 365424,
  "internal_node_id": "0.0-2.0"
 },
 {
  "rt": 4040,
  "key_press": 32,
  "trial_type": "text",
  "trial_index": 77,
  "time_elapsed": 370467,
  "internal_node_id": "0.0-3.0"
 }
]


    },
    "AcceptTime": "2017-11-18T01:20:43Z",
    "HITId": "32LAQ1JNT99U8CEAP978IEEKE9MTUG",
    "Assignment": "",
    "AssignmentStatus": "Submitted",
    "SubmitTime": "2017-11-18T01:21:18Z"
}